Folder: rHDPE_Data_Analysis/R/rHDPE_App/app/www/Output/SAXS/Features

File: Mean_Features.csv
,sample,SAXS_LP,SAXS_A,SAXS_Xc,SAXS_lc,SAXS_la,SAXS_TMF,SAXS_MP,SAXS_Crystallinity,SAXS_MW,SAXS_0SV,SAXS_V_at_MS,SAXS_AI,SAXS_AC,SAXS_t
0,11.0,0.057971,0.1,0.452376,0.0582997,0.13204,0.684399,0.584034,0.547619,0.006014,1.13633e-06,0.143332,0.362069,0.361345,0.121053
1,10.0,0.318841,0.4,0.528871,0.30321,0.450582,0.693963,0.138655,0.190476,0.0123449,3.62733e-06,0.166207,0.448276,0.305042,0.136842
2,4.0,1.0,1.0,0.935707,1.0,1.0,0.0,0.504202,0.595238,0.00157497,2.09797e-07,0.00433211,0.310345,0.301681,0.115789
3,13.0,0.144928,0.4,0.0,0.0677278,0.593992,0.800956,0.231092,0.240476,0.0161378,6.00262e-06,0.231699,0.327586,0.218487,0.178947
4,21.0,0.217391,0.4,0.239372,0.167203,0.527547,0.99462,0.205882,0.333333,0.340471,0.028074,0.0706934,0.293103,0.358824,0.126316
5,23.0,0.304348,0.5,0.274922,0.249114,0.632376,0.978482,0.231092,0.0,0.153474,0.00219453,0.145291,0.517241,0.181513,0.173684
6,18.0,0.23913,0.45,0.190813,0.17861,0.598448,1.0,0.315126,0.428571,1.0,1.0,0.0415138,0.603448,0.570588,0.0789474
7,22.0,0.304348,0.5,0.274922,0.249114,0.632376,0.922893,0.403361,0.595238,0.0565774,0.000116027,0.202505,0.534483,0.337815,0.152632
8,20.0,0.210145,0.4,0.216795,0.157355,0.533703,0.91572,0.415966,0.404762,0.0464163,6.82377e-05,0.352156,0.0,0.278992,0.0
9,2.0,0.304348,0.6,0.0472188,0.21226,0.813957,0.763299,0.483193,0.142857,0.0166887,6.41414e-06,0.114884,0.327586,0.241176,0.131579
10,3.0,0.565217,0.75,0.461244,0.511886,0.862912,0.743574,1.0,0.571429,0.0229499,1.24653e-05,0.108427,0.258621,0.517647,0.0842105
11,17.0,0.0,0.0,0.513539,0.0152111,0.00540147,0.918111,0.533613,0.190476,0.0372902,3.89308e-05,0.461025,0.87931,1.0,0.0684211
12,16.0,0.123188,0.1,0.641826,0.144618,0.0880533,0.563658,0.0,0.452381,0.00179975,2.44182e-07,0.223614,1.0,0.969748,1.0
13,19.0,0.0144928,0.1,0.313766,0.0,0.16508,0.542738,0.323529,0.928571,0.0,0.0,0.0632157,0.586207,0.0,0.405263
14,1.0,0.101449,0.1,0.58093,0.115981,0.102048,0.827854,0.579832,0.690476,0.0195291,8.83037e-06,0.126004,0.517241,0.523529,0.105263
15,15.0,0.268116,0.1,1.0,0.332765,0.00839657,0.698745,0.987395,0.619048,0.0123317,3.62034e-06,0.182873,0.586207,0.893277,0.0631579
16,12.0,0.130435,0.3,0.200495,0.0852377,0.422987,0.913927,0.5,0.595238,0.041365,5.06113e-05,0.238914,0.37931,0.342017,0.131579
17,6.0,0.137681,0.05,0.788297,0.179688,0.0,0.786013,0.231092,0.761905,0.0158802,5.81705e-06,0.281822,0.344828,0.185714,0.163158
18,5.0,0.217391,0.5,0.0,0.12995,0.711092,0.786611,0.294118,1.0,0.0165736,6.32627e-06,0.0,0.189655,0.191597,0.147368
19,7.0,0.202899,0.2,0.641087,0.216611,0.199381,0.735804,0.306723,0.452381,0.0128006,3.87337e-06,0.294666,0.396552,0.310924,0.131579
20,9.0,0.282609,0.55,0.0947508,0.201139,0.741649,0.829647,0.378151,0.452381,0.0246726,1.46283e-05,0.299536,0.344828,0.168908,0.210526
21,8.0,0.108696,0.35,0.0,0.0366165,0.535442,0.933652,0.172269,0.333333,0.0501319,8.3689e-05,1.0,0.586207,0.296639,0.142105

File: Mean_Features_Unnormalised.csv
,sample,SAXS_LP,SAXS_A,SAXS_Xc,SAXS_lc,SAXS_la,SAXS_TMF,SAXS_MP,SAXS_Crystallinity,SAXS_MW,SAXS_0SV,SAXS_V_at_MS,SAXS_AI,SAXS_AC,SAXS_t
0,1.0,284.0,52.0,0.758653,215.457,68.5425,0.301,131.38,0.7,1094300.0,1706400000.0,740.01,2.3,7.23,0.43
1,2.0,312.0,62.0,0.726455,226.654,85.3459,0.2902,131.15,0.47,1001800.0,1263700000.0,731.95,2.19,3.87,0.48
2,3.0,348.0,65.0,0.751433,261.499,86.5014,0.2869,132.38,0.65,1205700.0,2372400000.0,727.27,2.15,7.16,0.39
3,4.0,408.0,70.0,0.780056,318.263,89.7371,0.1625,131.2,0.66,509610.0,126940000.0,651.82,2.18,4.59,0.45
4,5.0,300.0,60.0,0.723607,217.082,82.918,0.2941,130.7,0.83,998050.0,1247600000.0,648.68,2.11,3.28,0.51
5,6.0,289.0,51.0,0.771163,222.866,66.1339,0.294,130.55,0.73,975470.0,1154300000.0,852.95,2.2,3.21,0.54
6,7.0,298.0,54.0,0.762282,227.16,70.8399,0.2856,130.73,0.6,875180.0,798180000.0,862.26,2.23,4.7,0.48
7,8.0,285.0,57.0,0.723607,206.228,78.7721,0.3187,130.41,0.55,2090900.0,15422000000.0,1373.5,2.34,4.53,0.5
8,9.0,309.0,61.0,0.729323,225.361,83.6392,0.3013,130.9,0.6,1261800.0,2768700000.0,865.79,2.2,3.01,0.63
9,10.0,314.0,58.0,0.755512,237.231,76.7691,0.2786,130.33,0.49,860340.0,753100000.0,769.15,2.26,4.63,0.49
10,11.0,278.0,52.0,0.750898,208.75,69.2504,0.277,131.39,0.64,654170.0,296700000.0,752.57,2.21,5.3,0.46
11,12.0,288.0,56.0,0.735702,211.882,76.1177,0.3154,131.19,0.66,1805400.0,9361500000.0,821.85,2.22,5.07,0.48
12,13.0,290.0,58.0,0.723607,209.846,80.154,0.2965,130.55,0.511,983860.0,1188300000.0,816.62,2.19,3.6,0.57
13,15.0,307.0,52.0,0.783935,240.668,66.3321,0.2794,132.35,0.67,859910.0,751820000.0,781.23,2.34,11.63,0.35
14,16.0,287.0,52.0,0.762327,218.788,68.2122,0.2568,130.0,0.6,516930.0,133240000.0,810.76,2.58,12.54,2.13
15,17.0,270.0,50.0,0.754588,203.739,66.2614,0.3161,131.27,0.49,1672700.0,7221400000.0,982.84,2.51,12.9,0.36
16,18.0,303.0,59.0,0.735118,222.741,80.2592,0.3298,130.75,0.59,33024000.0,183220000000000.0,678.77,2.35,7.79,0.38
17,19.0,272.0,52.0,0.742536,201.97,70.0303,0.2533,130.77,0.8,458320.0,88501000.0,694.5,2.34,1.0,1.0
18,20.0,299.0,58.0,0.736686,220.269,78.731,0.3157,130.99,0.58,1969900.0,12591000000.0,903.93,2.0,4.32,0.23
19,21.0,300.0,58.0,0.738048,221.414,78.5857,0.3289,130.49,0.55,11546000.0,5143800000000.0,699.92,2.17,5.27,0.47
20,22.0,312.0,60.0,0.740192,230.94,81.06,0.3169,130.96,0.66,2300800.0,21347000000.0,795.46,2.31,5.02,0.52
21,23.0,312.0,60.0,0.740192,230.94,81.06,0.3262,130.55,0.41,5456300.0,402170000000.0,753.99,2.3,3.16,0.56

File: Std_of_Features.csv
,sample,SAXS_LP,SAXS_A,SAXS_Xc,SAXS_lc,SAXS_la,SAXS_TMF,SAXS_MP,SAXS_Crystallinity,SAXS_MW,SAXS_0SV,SAXS_V_at_MS,SAXS_AI,SAXS_AC,SAXS_t
0,11.0,0.0,0.0,0.0,0.0,0.0,0.0,0.0,0.0,0.0,0.0,0.0,0.0,0.0,0.0
1,10.0,0.0,0.0,0.0,0.0,0.0,0.0,0.0,0.0,0.0,0.0,0.0,0.0,0.0,0.0
2,4.0,0.0,0.0,0.0,0.0,0.0,0.0,0.0,0.0,0.0,0.0,0.0,0.0,0.0,0.0
3,13.0,0.0,0.0,0.0,0.0,0.0,0.0,0.0,0.0,0.0,0.0,0.0,0.0,0.0,0.0
4,21.0,0.0,0.0,0.0,0.0,0.0,0.0,0.0,0.0,0.0,0.0,0.0,0.0,0.0,0.0
5,23.0,0.0,0.0,0.0,0.0,0.0,0.0,0.0,0.0,0.0,0.0,0.0,0.0,0.0,0.0
6,18.0,0.0,0.0,0.0,0.0,0.0,0.0,0.0,0.0,0.0,0.0,0.0,0.0,0.0,0.0
7,22.0,0.0,0.0,0.0,0.0,0.0,0.0,0.0,0.0,0.0,0.0,0.0,0.0,0.0,0.0
8,20.0,0.0,0.0,0.0,0.0,0.0,0.0,0.0,0.0,0.0,0.0,0.0,0.0,0.0,0.0
9,2.0,0.0,0.0,0.0,0.0,0.0,0.0,0.0,0.0,0.0,0.0,0.0,0.0,0.0,0.0
10,3.0,0.0,0.0,0.0,0.0,0.0,0.0,0.0,0.0,0.0,0.0,0.0,0.0,0.0,0.0
11,17.0,0.0,0.0,0.0,0.0,0.0,0.0,0.0,0.0,0.0,0.0,0.0,0.0,0.0,0.0
12,16.0,0.0,0.0,0.0,0.0,0.0,0.0,0.0,0.0,0.0,0.0,0.0,0.0,0.0,0.0
13,19.0,0.0,0.0,0.0,0.0,0.0,0.0,0.0,0.0,0.0,0.0,0.0,0.0,0.0,0.0
14,1.0,0.0,0.0,0.0,0.0,0.0,0.0,0.0,0.0,0.0,0.0,0.0,0.0,0.0,0.0
15,15.0,0.0,0.0,0.0,0.0,0.0,0.0,0.0,0.0,0.0,0.0,0.0,0.0,0.0,0.0
16,12.0,0.0,0.0,0.0,0.0,0.0,0.0,0.0,0.0,0.0,0.0,0.0,0.0,0.0,0.0
17,6.0,0.0,0.0,0.0,0.0,0.0,0.0,0.0,0.0,0.0,0.0,0.0,0.0,0.0,0.0
18,5.0,0.0,0.0,0.0,0.0,0.0,0.0,0.0,0.0,0.0,0.0,0.0,0.0,0.0,0.0
19,7.0,0.0,0.0,0.0,0.0,0.0,0.0,0.0,0.0,0.0,0.0,0.0,0.0,0.0,0.0
20,9.0,0.0,0.0,0.0,0.0,0.0,0.0,0.0,0.0,0.0,0.0,0.0,0.0,0.0,0.0
21,8.0,0.0,0.0,0.0,0.0,0.0,0.0,0.0,0.0,0.0,0.0,0.0,0.0,0.0,0.0

File: Std_of_Features_Unnormalised.csv
,sample,SAXS_LP,SAXS_A,SAXS_Xc,SAXS_lc,SAXS_la,SAXS_TMF,SAXS_MP,SAXS_Crystallinity,SAXS_MW,SAXS_0SV,SAXS_V_at_MS,SAXS_AI,SAXS_AC,SAXS_t
0,1.0,0.0,0.0,0.0,0.0,0.0,0.0,0.0,0.0,0.0,0.0,0.0,0.0,0.0,0.0
1,2.0,0.0,0.0,0.0,0.0,0.0,0.0,0.0,0.0,0.0,0.0,0.0,0.0,0.0,0.0
2,3.0,0.0,0.0,0.0,0.0,0.0,0.0,0.0,0.0,0.0,0.0,0.0,0.0,0.0,0.0
3,4.0,0.0,0.0,0.0,0.0,0.0,0.0,0.0,0.0,0.0,0.0,0.0,0.0,0.0,0.0
4,5.0,0.0,0.0,0.0,0.0,0.0,0.0,0.0,0.0,0.0,0.0,0.0,0.0,0.0,0.0
5,6.0,0.0,0.0,0.0,0.0,0.0,0.0,0.0,0.0,0.0,0.0,0.0,0.0,0.0,0.0
6,7.0,0.0,0.0,0.0,0.0,0.0,0.0,0.0,0.0,0.0,0.0,0.0,0.0,0.0,0.0
7,8.0,0.0,0.0,0.0,0.0,0.0,0.0,0.0,0.0,0.0,0.0,0.0,0.0,0.0,0.0
8,9.0,0.0,0.0,0.0,0.0,0.0,0.0,0.0,0.0,0.0,0.0,0.0,0.0,0.0,0.0
9,10.0,0.0,0.0,0.0,0.0,0.0,0.0,0.0,0.0,0.0,0.0,0.0,0.0,0.0,0.0
10,11.0,0.0,0.0,0.0,0.0,0.0,0.0,0.0,0.0,0.0,0.0,0.0,0.0,0.0,0.0
11,12.0,0.0,0.0,0.0,0.0,0.0,0.0,0.0,0.0,0.0,0.0,0.0,0.0,0.0,0.0
12,13.0,0.0,0.0,0.0,0.0,0.0,0.0,0.0,0.0,0.0,0.0,0.0,0.0,0.0,0.0
13,15.0,0.0,0.0,0.0,0.0,0.0,0.0,0.0,0.0,0.0,0.0,0.0,0.0,0.0,0.0
14,16.0,0.0,0.0,0.0,0.0,0.0,0.0,0.0,0.0,0.0,0.0,0.0,0.0,0.0,0.0
15,17.0,0.0,0.0,0.0,0.0,0.0,0.0,0.0,0.0,0.0,0.0,0.0,0.0,0.0,0.0
16,18.0,0.0,0.0,0.0,0.0,0.0,0.0,0.0,0.0,0.0,0.0,0.0,0.0,0.0,0.0
17,19.0,0.0,0.0,0.0,0.0,0.0,0.0,0.0,0.0,0.0,0.0,0.0,0.0,0.0,0.0
18,20.0,0.0,0.0,0.0,0.0,0.0,0.0,0.0,0.0,0.0,0.0,0.0,0.0,0.0,0.0
19,21.0,0.0,0.0,0.0,0.0,0.0,0.0,0.0,0.0,0.0,0.0,0.0,0.0,0.0,0.0
20,22.0,0.0,0.0,0.0,0.0,0.0,0.0,0.0,0.0,0.0,0.0,0.0,0.0,0.0,0.0
21,23.0,0.0,0.0,0.0,0.0,0.0,0.0,0.0,0.0,0.0,0.0,0.0,0.0,0.0,0.0