Folder: rHDPE_Data_Analysis/R/rHDPE_App/Input/DSC

File: Mean_Features.csv
,sample,DSC_HFM_160,DSC_C_HalfPeak,DSC_M_HalfPeak,DSC_HFC_102,DSC_Crystallininty
0,11.0,0.110092,0.668011,0.658699,0.545073,0.386957
1,14.0,0.0756881,0.529234,0.531873,0.487421,0.613043
2,10.0,0.195719,0.383065,0.49668,0.39413,0.417391
3,4.0,0.159021,0.416667,0.463479,0.285115,0.565217
4,13.0,0.13211,0.456452,0.534661,0.444025,0.408696
5,21.0,0.486239,0.572581,0.648074,0.167715,0.495652
6,23.0,0.969419,0.333333,0.386454,0.0607966,0.0
7,18.0,0.552752,0.766129,0.676295,0.143082,0.36087
8,22.0,0.502294,0.678427,0.691235,0.218553,0.43913
9,20.0,0.550459,0.697581,0.656042,0.115304,0.491304
10,2.0,0.0550459,0.479839,0.438247,0.436059,0.573913
11,3.0,0.040367,0.320968,0.407968,0.378616,0.647826
12,17.0,0.00611621,0.444892,0.237716,0.440252,0.778261
13,16.0,0.00458716,0.455645,0.683267,0.940252,0.66087
14,19.0,0.00458716,0.445565,0.605578,0.68239,0.952174
15,1.0,0.00611621,0.697581,0.596282,0.549266,0.626087
16,15.0,0.0183486,0.576613,0.494024,0.412998,1.0
17,12.0,0.0214067,0.477151,0.436919,0.444444,0.743478
18,6.0,0.00611621,0.686828,0.795485,0.708595,0.465217
19,5.0,0.0519878,0.568548,0.594954,0.503145,0.443478
20,7.0,0.0428135,0.650538,0.77822,0.626834,0.5
21,9.0,0.0458716,0.0826613,0.199203,0.339623,0.46087
22,8.0,0.00611621,0.447581,0.527224,0.494759,0.321739
23,24.0,0.0030581,0.563172,0.38911,0.461216,0.678261

File: Std_of_Features.csv
,sample,DSC_HFM_160,DSC_C_HalfPeak,DSC_M_HalfPeak,DSC_HFC_102,DSC_Crystallininty
0,11.0,0.00917431,0.106285,0.103185,0.0525365,0.0
1,14.0,0.00439187,0.09517,0.116898,0.0433841,0.0
2,10.0,0.0244648,0.0423547,0.0665205,0.0325454,0.0
3,4.0,0.0030581,0.0505955,0.0356593,0.00209644,0.0
4,13.0,0.00944553,0.0715018,0.0653362,0.0300047,0.0
5,21.0,0.00529679,0.0689033,0.088261,0.0551088,0.0
6,23.0,0.0186017,0.0261666,0.0242341,0.0137473,0.0
7,18.0,0.0454684,0.0834849,0.0891068,0.0344838,0.0
8,22.0,0.0302833,0.0361172,0.0467597,0.0184036,0.0
9,20.0,0.0242729,0.0685484,0.0726052,0.0576806,0.0
10,2.0,0.0,0.0262355,0.0119522,0.0151176,0.0
11,3.0,0.00224724,0.104174,0.121096,0.0384317,0.0
12,17.0,0.0030581,0.0968955,0.104762,0.0508359,0.0
13,16.0,0.00458716,0.0241935,0.0139442,0.0597484,0.0
14,19.0,0.00458716,0.0383065,0.0517928,0.00943396,0.0
15,1.0,0.0030581,0.0524194,0.065073,0.0230608,0.0
16,15.0,0.0,0.117997,0.145423,0.0472513,0.0
17,12.0,0.0030581,0.040746,0.0200966,0.0348916,0.0
18,6.0,0.0030581,0.10526,0.104332,0.0974561,0.0
19,5.0,0.0030581,0.034294,0.016319,0.00628931,0.0
20,7.0,0.0030581,0.0896919,0.0978149,0.0721064,0.0
21,9.0,0.0,0.0383065,0.111554,3.77476e-15,0.0
22,8.0,0.0030581,0.0708041,0.0673112,0.0308824,0.0
23,24.0,0.0030581,0.0117175,0.0274422,0.00755881,0.0