Folder: rHDPE_Data_Analysis/R/rHDPE_App/app/www/Output/FTIR/Features

File: Specimen_Features.csv
,FTIR_777,FTIR_808,FTIR_825,FTIR_841,FTIR_854,FTIR_875,FTIR_908,FTIR_972,FTIR_997,FTIR_1018,FTIR_1066,FTIR_1082,FTIR_1166,FTIR_1195,FTIR_1213,FTIR_1261,FTIR_1367,FTIR_1377,FTIR_1398,FTIR_1409,FTIR_1435,FTIR_1490,FTIR_1541,FTIR_1577,FTIR_1631,FTIR_1645,FTIR_1658,FTIR_1739,FTIR_1978,FTIR_2162,FTIR_2952,FTIR_2960,FTIR_3297
0,0.0,0.0,0.0,0.0,0.0,0.0,0.168029,0.0,0.0,0.0,0.0,0.0,0.0,0.0,0.0,0.0,0.431323,0.0,0.0,0.0,0.0,0.0,0.0,0.0,0.0,0.184835,0.0,0.0,0.0,0.408915,0.0,0.0,0.0
11,0.0,0.0,0.0,0.0,0.0,0.0,0.0,0.0,0.0,0.0,0.0,0.0,0.0,0.0,0.0,0.0,0.0,1.0,0.0,0.0,0.0,0.0,0.0,0.0,0.0,0.0,0.0,0.0279796,0.100805,0.834666,0.0,0.0,0.0
22,0.0,0.0,0.0,0.0,0.0,0.0,0.128815,0.0,0.0,0.0,0.0,0.0,0.0,0.0,0.0,0.0,0.173631,0.274467,0.0,0.0,0.0,0.0,0.0,0.0,0.196039,0.0,0.0,0.0,0.100805,0.806656,0.0,0.0,0.0
33,0.0,0.0,0.0,0.0,0.0,0.0,0.0,0.0,0.0,0.0,0.0,0.0,0.0,0.0,0.0,0.0,0.0335815,0.689014,0.0,0.0,0.0,0.0,0.0896024,0.0391835,0.0,0.0,0.0,0.0,0.0,0.347293,0.0,0.0,0.0
44,0.0,0.0,0.0,0.0,0.0,0.0,0.0,0.0,0.0,0.0,0.240855,0.0,0.0,0.0,0.0,0.0,0.0,1.0,0.0,0.0,0.257661,0.0,1.0,0.661004,0.0,0.0,0.0,0.0,0.235253,0.985919,0.0,0.0,0.0
55,0.0,0.0,0.0,0.0,0.0,0.0,0.308079,0.0,0.0,0.0,0.358497,0.0,0.0,0.0279796,0.0,0.0503875,0.560168,0.0,0.0,0.0,0.0839994,0.0,1.0,0.0,0.0,1.0,0.0,0.0,0.0,1.0,0.0,0.0,0.319283
66,0.0,0.0,0.0,0.0,0.0,0.0,0.0,0.0,0.0,0.0,0.0,0.0,0.0,0.0,0.0,0.380905,0.140019,0.78985,0.0,0.0,0.240855,0.0,1.0,0.661004,0.0,0.0,0.0,0.0,0.352895,1.0,0.0,0.0,0.0
77,1.0,0.0,0.151223,0.0,1.0,0.0,1.0,0.0,0.0,0.498552,0.0,1.0,0.0,1.0,1.0,0.0,1.0,1.0,0.190437,0.0,0.0447855,1.0,0.11201,0.0447855,0.0,0.0,0.0,0.0,0.263263,0.212845,0.0,0.48174,0.0
88,0.0,0.0,0.0,0.0,0.0,0.0,0.76184,0.0,0.0,0.0,0.0,0.0,0.0,0.0,0.0,0.0,0.0,0.476138,0.0,0.0,0.0,0.0,0.0,0.0,0.0,0.0,0.0,0.0,0.268865,0.81786,0.0,0.0,0.0
99,0.0,0.0,0.0,0.0,0.0,0.0,0.0,0.0,0.0,0.0,0.0,0.0,0.0,0.0,0.0,0.112009,0.0,1.0,0.0,0.0,0.0,0.0,0.0,0.0,0.0,0.0,0.0,0.666606,0.358497,1.0,0.0,0.201641,0.0
110,0.0,0.0,0.0,0.0,0.0,0.0,0.571372,0.0,0.0,0.0,0.0,0.0,0.0,0.0,0.0,0.0,0.369701,0.0,0.0,0.0,0.0,0.0,0.0,0.0,0.0,0.0,0.0,0.0,0.386507,0.941103,0.0,0.0,0.0
121,0.0,0.0,0.0,0.0,0.0,0.0,0.0,0.0,0.0,0.0,0.0,0.0,0.0,0.0,0.0,0.0,0.196039,0.0,0.0,0.0,0.0,0.0,0.0,0.0,0.0,0.526556,0.0,0.0,0.168029,0.689014,0.0,0.0,0.0
132,0.0,0.0,0.0,0.0,0.0,0.0,0.442527,0.0,0.0,0.0,0.0,0.0,0.0,0.0,0.0,0.0,0.240855,0.0,0.0,0.0,0.0,0.0,0.0,0.0,0.0,0.0,0.0,1.0,0.0,0.0896014,0.0,0.0,0.0
143,0.0,0.0,0.0,0.0,0.0,0.0,0.0,0.0,0.0,0.0,0.0,0.0,0.0,0.0,0.0,0.0,0.179233,0.0,0.0,0.0,0.0,0.0,0.0,0.0,0.0,0.0,0.0,0.375303,0.196039,0.694616,0.0,0.0,0.0
154,0.0,0.0,0.0,0.73383,0.0,0.0,0.112009,0.604984,0.504148,0.0,0.0,0.0,0.369705,0.0,0.0,0.0,0.0,1.0,0.0,0.0,0.330487,0.0,0.0,0.0,0.0,0.0,0.0,0.414517,0.0,0.53776,1.0,1.0,0.0
165,0.0,0.0,0.0,0.218447,0.0,0.336089,0.0615915,0.352895,0.123213,0.621792,0.0,0.0,0.0,0.0,0.0,0.0,0.0,1.0,0.0,0.0,0.638596,0.0,0.25206,0.0,0.0,0.0671935,0.246457,1.0,0.0,0.767442,0.352895,1.0,0.0
176,0.0,0.0111736,0.0,1.0,0.0,0.112009,0.0,1.0,1.0,0.0,0.0,0.0,0.722626,0.0,0.0,0.0,0.0,1.0,0.0,0.0,1.0,0.0,0.0,0.0,0.0,0.0,0.0,0.134417,0.0391835,1.0,0.0,1.0,0.0
187,0.0,0.0,0.0,0.302477,0.0,0.179233,0.252059,0.369701,0.0,0.0,0.0,0.0,0.19604,0.0,0.0,0.0,0.0,1.0,0.0,0.0,0.0,0.0,0.890692,0.0,0.0,0.0,0.224049,0.0839994,0.554566,0.0,0.0,0.0,0.0
198,0.0,0.0,0.0,0.00557162,0.0,0.0,0.0391835,0.134417,0.0,0.0,0.0,0.0,0.0,0.0,0.0,0.0,0.0,1.0,0.0,0.0,0.0,0.0,0.49295,0.0,0.0,0.0,0.0,0.386507,1.0,0.795452,1.0,1.0,0.0
209,0.0,0.0,0.0,0.0,0.0,0.0,0.0,0.0,0.0,0.0,0.0,0.0,0.0,0.0,0.0,0.0,0.0,1.0,0.0,0.0,0.0,0.0,0.0,0.0,0.0,0.0,0.0,0.0,0.0,0.0783974,0.907491,0.907491,0.0
220,0.0,0.0,0.0,0.0671935,0.0,0.0,0.0,0.425721,0.0,0.0,0.0,0.0,0.0727955,0.0,0.0,0.711422,0.0,1.0,0.0,0.0,0.0,0.0,0.0,0.0,0.0,0.0,0.0,0.756238,0.0,0.0,0.873879,0.873879,0.117611
231,0.0,0.0,0.0,0.0952034,0.0,0.0,0.0111736,0.347293,0.0503875,0.0,0.0,0.0,0.0,0.0,0.0,0.0,0.0,1.0,0.0,0.0,0.560168,0.0,0.0,0.0,0.0,0.0447855,0.0,0.0,0.997123,0.0,1.0,1.0,0.0
242,0.0,0.0,0.0,0.700218,0.0,0.0,0.212845,0.604984,0.134417,0.0,0.0,0.0615915,0.0,0.0,0.0,0.0,0.0,1.0,0.0,0.0,0.45373,0.0,0.0,0.0,0.0,0.0,0.0,0.0,0.0,1.0,0.0,0.0,0.0
253,0.0,0.0,0.0,0.0,0.0,0.0,0.308079,0.0,0.0,0.0,0.0,0.0,0.0,0.0,0.0,0.0,0.145621,0.392109,0.0,0.0,0.0,0.0,0.0,0.0,0.0,0.0,0.0,0.0,0.0,0.0,0.0,0.0,0.0
264,0.0,0.0,0.0,0.0,0.0,0.0,0.0,0.0,0.0,0.0,0.0,0.0,0.0,0.0,0.0,0.0,0.56577,0.0,0.0,0.0,0.420119,0.0,0.0,0.0,0.50975,0.0,0.0,0.745034,0.873879,0.0,0.0,0.0,0.0
275,0.0,0.0,0.0,0.0,0.0,0.0,0.0,0.0,0.0,0.0,0.0,0.0,0.0,0.0,0.0,0.0,0.308079,0.0,0.0,0.0,1.0,0.0,0.0,0.0,1.0,0.0,0.0,1.0,0.991521,0.0,0.0,0.0,0.0
286,0.0,0.0,0.0,0.0,0.0,0.0,0.308079,0.0,0.0,0.0,0.0,0.0,0.0,0.0,0.0,0.0,0.0,1.0,0.0,0.0,0.0,0.0,0.0,0.0,1.0,0.0,0.0,1.0,0.907491,0.168029,0.0,0.0167756,0.0
297,0.0,0.0,0.0,0.0671935,0.0,0.0,0.0,0.0111736,0.0,0.0559907,0.0,0.0,0.0,0.0,0.0,1.0,0.0,1.0,0.0,0.308079,0.0,0.0,0.0,0.0,0.812258,0.0,0.0,0.0,0.0,0.0,0.0,0.700218,0.0
308,0.0,0.0,0.0,0.784248,0.0,0.263263,0.76184,0.548964,0.414517,0.0,0.0,0.0,0.0391863,0.0,0.0,0.0,0.0,1.0,0.0,0.0,0.0,0.0,0.0,0.0,0.0,1.0,0.0,1.0,0.711422,1.0,0.0,1.0,0.0
319,0.0,0.0,0.0,0.0,0.0,0.0,0.980317,0.0,0.0,0.0,0.0,0.0,0.0,0.0,0.0,0.0,0.728228,0.0,0.0,0.0,0.0,0.0,0.0,0.0,0.0,0.0,0.0,0.0,0.0,0.0,0.0,0.0,0.0
330,0.0,0.0,0.0,0.324885,0.0,0.246457,0.0,0.246457,0.0952034,0.0,0.0,0.0,0.0,0.0,0.0,0.0,0.0,1.0,0.0,0.0,0.0,0.0,0.0,0.0,0.0,0.330487,0.0,0.0,0.0,0.498546,0.0,1.0,0.0
341,0.0,0.0,0.0,0.470536,0.0,0.313681,0.0,0.308079,0.268865,0.0,0.0,0.0,0.0,0.0,0.0,0.0,0.0,1.0,0.0,0.0,0.0,0.0,0.0,0.0,0.0,0.0,0.0,0.0,0.717024,0.0,0.0,1.0,0.0
352,0.0,0.0,0.0,0.0,0.0,0.0,0.0,0.0,0.0,0.0,0.0,0.0,0.0,0.0,0.0,0.0,0.397711,0.0,0.0,0.0,0.0,0.0,0.0,0.0,0.0,0.274467,0.0,0.0,0.145621,0.526556,0.0,0.0,0.0
363,0.0,0.0,0.0,0.0,0.0,0.0,0.0,0.0,0.0,0.0,0.0,0.0,0.0,0.0,0.0,0.0,1.0,0.0,0.0,0.0,1.0,0.0,0.969117,0.0,0.0,1.0,0.0,0.364099,0.0,0.0,0.0,0.0,0.0
374,0.0,0.0,0.0,0.0,0.0,0.0503875,0.179233,0.0,0.0,0.0,0.0,0.0,0.0,0.0,0.0,0.0,0.627392,1.0,0.0,0.0,0.0,0.0,0.0,0.0,0.0,0.0,0.0,0.0,0.207243,0.0952034,0.0,0.0,0.0
385,0.0,0.0,0.0,0.0,0.0,1.0,0.0,0.0,0.0,0.0,0.0,0.0,0.0,0.0,0.0,0.0,0.0952034,1.0,0.0,0.196039,0.0,0.0,0.0,0.0,0.0,0.0,0.0,0.0,0.0,0.408915,0.0,0.0839994,0.0
396,0.0,0.0,0.0,0.0,0.0,0.0,0.420119,0.0,0.0,0.0,0.0,0.0,0.0,0.0,0.0,0.0,0.431323,1.0,0.0,0.0,0.0,0.0,0.274469,0.0,0.0,1.0,0.0,0.0,0.526556,0.0783974,0.0,0.145621,0.0
407,0.0,0.0,0.0,0.0,0.0,0.0,0.0,0.0,0.0,0.0,0.0,0.0,0.0,0.0,0.0,0.0,0.252059,0.0,0.0,1.0,0.599382,0.0,0.0,0.0,0.0,0.431323,0.0,0.0,0.224049,0.689014,0.0,0.0,0.0
418,0.0,0.0,0.0,0.0,0.0,0.0,1.0,0.0,0.0,0.0,0.0,0.0,0.0,0.0,0.0,0.0,1.0,1.0,0.0,0.0,1.0,0.0,1.0,0.0,0.0,1.0,0.0,0.0,1.0,1.0,0.0,0.655402,1.0
429,0.0,0.0,0.0,0.0,0.0,0.218447,0.0,0.0,0.0,0.0,0.0,0.0,0.0,0.0,0.0,0.0,0.890685,1.0,0.0,0.0,0.0,0.0,0.0,0.0,0.0,0.0,0.0,0.0,0.0,1.0,0.0,0.0,0.0
440,0.112009,0.0,0.0,0.0,1.0,0.0,0.408915,0.0,0.0,0.0,0.0,1.0,0.0,0.442527,0.599382,0.0,0.610586,0.0,0.0,0.0,0.0,1.0,0.0,0.0,0.0,0.918695,0.0,0.0,0.196039,0.0,0.0,0.0,0.0
451,0.0,0.0,0.0,0.0,0.0,0.0,0.980317,0.0,0.0,0.0,0.0,0.0,0.0,0.0,0.0,0.0,0.134417,1.0,0.0,0.0,0.0,0.0,0.0,0.0,0.0,0.431323,0.0,0.0,0.128815,0.420119,0.0,0.0,0.0
462,0.0,0.0,0.0,0.0,0.0,0.0,0.722626,0.0,0.0,0.0,0.0,0.0,0.0,0.0,0.0,0.0,0.0,1.0,0.0,0.0,0.0279796,0.0,0.0,0.0,0.0,0.929899,0.0,0.0,0.78985,1.0,0.0,0.0,0.0
473,0.0,0.0,0.0,0.336089,0.0,0.0,0.879481,0.0279796,0.0,0.0,0.0,0.0,0.0,0.0,0.0,0.0,0.0,1.0,0.0,0.0,0.268865,0.0,0.0,0.0,0.0,0.0,0.0,0.0,0.806656,1.0,0.0,0.280069,0.0
484,0.0,0.0,0.0,0.56577,0.0,0.0,0.750636,0.302477,0.229651,0.0,0.0,0.0,0.0,0.0,0.0,0.0,0.0,1.0,0.0,0.0,0.347293,0.0,0.0,0.0,0.0,0.330487,0.0,0.0,1.0,0.0,0.0,0.812258,0.0
495,0.0,0.0,0.0,1.0,0.0,0.0,0.81786,1.0,0.969113,0.0,0.0,0.0,0.408918,0.0,0.0,0.0,0.0,1.0,0.0,0.0,0.896287,0.0,0.0,0.0,0.0,1.0,0.0,0.0,0.0,1.0,1.0,1.0,0.0
506,0.0,0.0,0.0,1.0,0.0,0.0,0.53776,1.0,1.0,0.0,0.0,0.0,0.750636,0.0,0.0,0.0,0.0,1.0,0.0,0.0,1.0,0.0,0.0,0.0,0.0,0.313681,0.0,0.0,0.661004,0.48174,1.0,1.0,0.0
517,0.0,0.0,0.0,1.0,0.0,0.0,0.627392,1.0,1.0,0.0,0.0,0.0,0.81786,0.0,0.0,0.0,0.0,1.0,0.0,0.0,1.0,0.0,0.0,0.0,0.0,1.0,0.0,0.0,1.0,0.0,1.0,1.0,0.0
528,0.0,1.0,0.0,1.0,0.0,0.0,0.0,1.0,1.0,0.0,0.0,0.0,1.0,0.0,1.0,1.0,0.0,1.0,0.0,0.0,1.0,0.0,0.0,0.0,0.0,1.0,0.0,0.0,1.0,0.0,1.0,1.0,0.0
539,0.0,0.0,0.0,0.0167756,0.0,0.0,0.308079,0.224049,0.0,0.0,0.0,0.0,0.0,0.0,0.0,0.0,0.0,1.0,0.0,0.0,0.0,0.0,0.453734,0.0,0.0,0.173631,0.0,0.0,0.0,0.0,0.0,0.0,0.0
550,0.0,0.0,0.0,0.0,0.0,0.0,1.0,0.347293,0.0,0.0,0.291273,0.0503875,0.0,0.0,0.0,0.0,0.644198,1.0,0.0,0.0,0.0,0.0,0.0,0.0,0.0503875,0.907491,0.0,0.0,0.0,0.0,0.0,0.0,0.0
561,0.0,0.0,0.0,1.0,0.0,0.0,1.0,0.319283,0.308079,0.0,0.0,0.0,0.0,0.0,0.0,0.0,1.0,1.0,0.0,0.0,1.0,0.0,0.0,0.0,0.48174,1.0,0.0,0.0,1.0,1.0,0.0,0.0,0.0
572,0.0,0.750636,0.0,1.0,0.0,1.0,1.0,1.0,1.0,0.0,0.0,0.0,1.0,0.0,0.0,0.0,0.0,1.0,0.0,0.0,1.0,0.0,1.0,0.347293,0.520954,1.0,0.0,0.0,0.750636,0.0,0.0,1.0,0.0
583,0.0,0.0,0.0,0.0,0.0,1.0,1.0,0.604984,0.392109,0.0,0.0,0.224049,0.0,0.0,0.0,0.59378,0.0,1.0,0.0,0.0,1.0,0.0,0.0,0.0615915,0.0,1.0,0.0,0.0223776,1.0,1.0,0.0,0.268865,0.0
594,0.0,0.0559895,0.0,1.0,0.0,1.0,1.0,1.0,1.0,0.0,0.0,0.308079,1.0,0.0,0.0,0.0,0.0,1.0,0.0,0.0,1.0,0.0,0.0,0.0,0.0,1.0,0.0,0.0,1.0,0.347293,0.0,1.0,0.0
605,0.0,0.963511,0.0,1.0,0.0,1.0,0.0,1.0,1.0,0.0,0.0,0.0,1.0,0.0,0.0,0.268865,0.0,1.0,0.0,0.0,1.0,0.0,0.6498,0.0,0.0,1.0,0.0,0.0,0.0,1.0,1.0,1.0,0.0
616,0.0,1.0,0.0,1.0,0.0,1.0,0.0,1.0,1.0,0.711422,0.0,0.0,1.0,0.0,0.0,1.0,0.0,1.0,0.0,0.0,1.0,0.0,0.0,0.0,0.0,0.907491,0.0,0.0,0.0,1.0,1.0,1.0,0.0
627,0.0,0.868277,0.0,1.0,0.0,1.0,1.0,1.0,1.0,0.0,0.0,0.0,1.0,0.0,0.0,0.0783974,0.0,1.0,0.0,0.0,1.0,0.0,0.0,0.0,0.0,0.0,0.0,0.0,0.196039,0.140019,0.0,1.0,0.0
638,0.0,1.0,0.0,1.0,0.0,1.0,0.0,1.0,1.0,0.414517,0.0,0.140019,1.0,0.0,0.0,1.0,0.0,1.0,0.0,0.0,1.0,0.0,1.0,0.812258,0.0,0.0,0.0,0.0,0.0,0.991521,1.0,1.0,0.0
649,0.0,0.313681,0.0,1.0,0.0,1.0,1.0,1.0,1.0,0.0,0.0,0.0503875,0.543367,0.0,0.0,0.0,0.0,1.0,0.0,0.0,1.0,0.0,0.0,0.0,0.0,0.280069,0.0,0.0,0.0,1.0,0.0,0.229651,0.0
660,0.0,0.0,0.0,0.53776,0.280069,0.0,1.0,0.0,0.240855,0.0,0.0,0.0,0.0,0.0,0.0,0.0,1.0,0.0,0.0,0.0,0.0,0.0,0.0,0.0,0.0,0.459332,0.0,0.0,0.0,0.683412,0.0,0.0,0.0
671,0.0,0.0,0.0,0.0,0.436925,0.212845,0.717024,0.0,0.0,0.0,0.0,0.0,0.0,0.0,0.0,0.0,1.0,0.0,0.0,0.0,0.190437,0.0,0.0,0.0,0.0,0.0,0.0,0.0,1.0,1.0,0.0,0.0,0.0
672,0.0,0.0,0.0,0.0,0.0,0.0,0.285671,0.0,0.0,0.0,0.0,0.0,0.0,0.0,0.0,0.0,1.0,0.0,0.0,0.0,0.0,0.0,0.0,0.0,1.0,1.0,0.0,0.0,0.0,0.0,0.0,0.0,0.0