Folder: rHDPE_Data_Analysis/R/rHDPE_App/app/www/Output/TGA/Condensed_Data (part 3)

File: Resin2_2_.csv
0.8800000,30,14.726,100.031,0.0004112
1.15,32.2004,14.727,100.038,0.0005334
1.4,34.4008,14.728,100.043,0.0021412
1.64,36.6012,14.728,100.048,0.0011904
1.88,38.8016,14.729,100.051,0.0005870
2.11,41.002,14.729,100.055,0.0010659
2.34,43.2024,14.73,100.058,0.0005287
2.57,45.4028,14.73,100.061,0.0016730
2.8,47.6031,14.731,100.065,0.0020932
3.03,49.8035,14.731,100.068,0.0013245
3.26,52.0039,14.732,100.071,0.0014592
3.48,54.2043,14.732,100.075,0.0018751
3.71,56.4047,14.733,100.078,0.0009335
3.93,58.6051,14.733,100.08,0.0016747
4.16,60.8055,14.734,100.083,0.0013908
4.38,63.0059,14.734,100.086,0.0016183
4.6,65.2063,14.734,100.088,0.0012921
4.82,67.4067,14.735,100.091,0.0014286
5.04,69.6071,14.735,100.093,0.0008275
5.26,71.8075,14.735,100.095,0.0007343
5.48,74.0079,14.736,100.097,0.0007794
5.7,76.2083,14.736,100.099,0.0008251
5.92,78.4086,14.736,100.101,0.0009621
6.14,80.609,14.736,100.103,0.0010075
6.36,82.8094,14.737,100.104,0.0003205
6.58,85.0098,14.737,100.106,0.0007328
6.8,87.2102,14.737,100.107,0.0005950
7.03,89.4106,14.737,100.108,0.0001829
7.25,91.611,14.737,100.109,0.0005940
7.46,93.8114,14.738,100.11,0.0003660
7.68,96.0118,14.738,100.111,0.0004120
7.9,98.2122,14.738,100.112,0.0002748
8.12,100.413,14.738,100.113,0.0003205
8.35,102.613,14.738,100.113,0.0000000
8.56,104.813,14.738,100.113,-0.0000915
8.78,107.014,14.738,100.113,-0.0000916
9,109.214,14.738,100.114,0.0000458
9.23,111.415,14.738,100.114,-0.0002288
9.45,113.615,14.738,100.114,-0.0000000
9.67,115.815,14.738,100.113,0.0001376
9.88,118.016,14.738,100.113,0.0006424
10.1,120.216,14.738,100.113,-0.0000917
10.33,122.417,14.738,100.112,-0.0000917
10.55,124.617,14.738,100.112,0.0001376
10.77,126.817,14.738,100.112,0.0000000
10.99,129.018,14.738,100.113,0.0000000
11.21,131.218,14.738,100.112,0.0000917
11.43,133.418,14.738,100.111,-0.0004060
11.64,135.619,14.738,100.11,-0.0013702
11.87,137.819,14.737,100.109,-0.0010271
12.09,140.02,14.737,100.105,-0.0021872
12.31,142.22,14.736,100.1,-0.0022994
12.52,144.42,14.735,100.096,-0.0025873
12.74,146.621,14.735,100.091,-0.0021094
12.96,148.821,14.734,100.088,-0.0015644
13.18,151.022,14.734,100.084,-0.0015157
13.4,153.222,14.733,100.081,-0.0017451
13.63,155.422,14.733,100.078,-0.0014220
13.85,157.623,14.732,100.075,-0.0009643
14.07,159.823,14.732,100.072,-0.0020682
14.29,162.024,14.731,100.068,-0.0018777
14.51,164.224,14.731,100.065,-0.0014661
14.73,166.424,14.73,100.061,-0.0018345
14.95,168.625,14.73,100.057,-0.0016043
15.17,170.825,14.729,100.053,-0.0012389
15.39,173.026,14.729,100.05,-0.0016502
15.61,175.226,14.728,100.046,-0.0021514
15.83,177.426,14.727,100.041,-0.0023352
16.05,179.627,14.727,100.037,-0.0024721
16.27,181.827,14.726,100.032,-0.0021068
16.49,184.028,14.725,100.028,-0.0024730
16.71,186.228,14.725,100.023,-0.0021988
16.93,188.428,14.724,100.019,-0.0017869
17.15,190.629,14.723,100.014,-0.0021510
17.37,192.829,14.723,100.009,-0.0023814
17.59,195.029,14.722,100.004,-0.0017882
17.81,197.23,14.721,99.999,-0.0022457
18.03,199.43,14.72,99.994,-0.0019228
18.25,201.631,14.72,99.988,-0.0021978
18.47,203.831,14.719,99.983,-0.0022436
18.69,206.031,14.718,99.978,-0.0022476
18.91,208.232,14.717,99.972,-0.0028897
19.13,210.432,14.716,99.966,-0.0023394
19.35,212.633,14.716,99.961,-0.0026983
19.57,214.833,14.715,99.955,-0.0029762
19.79,217.033,14.714,99.949,-0.0027473
20.01,219.234,14.713,99.943,-0.0032081
20.23,221.434,14.712,99.936,-0.0028873
20.46,223.635,14.711,99.93,-0.0031579
20.68,225.835,14.71,99.924,-0.0027035
20.89,228.035,14.709,99.917,-0.0029789
21.12,230.236,14.708,99.911,-0.0032095
21.33,232.436,14.707,99.904,-0.0030712
21.56,234.637,14.706,99.897,-0.0038916
21.78,236.837,14.705,99.89,-0.0029331
21.99,239.037,14.704,99.883,-0.0031113
22.22,241.238,14.703,99.876,-0.0028417
22.44,243.438,14.702,99.869,-0.0032967
22.66,245.639,14.701,99.862,-0.0032072
22.88,247.839,14.7,99.855,-0.0032063
23.1,250.039,14.699,99.847,-0.0034812
23.32,252.24,14.698,99.84,-0.0038902
23.54,254.44,14.697,99.832,-0.0037115
23.76,256.64,14.696,99.824,-0.0038955
23.98,258.841,14.694,99.816,-0.0037108
24.2,261.041,14.693,99.808,-0.0041193
24.42,263.242,14.692,99.8,-0.0035309
24.64,265.442,14.691,99.792,-0.0034862
24.86,267.642,14.69,99.784,-0.0038511
25.08,269.843,14.688,99.775,-0.0035308
25.3,272.043,14.687,99.766,-0.0039399
25.52,274.244,14.686,99.757,-0.0036663
25.74,276.444,14.684,99.748,-0.0038497
25.96,278.644,14.683,99.739,-0.0040729
26.18,280.845,14.682,99.73,-0.0038032
26.4,283.045,14.68,99.721,-0.0044408
26.62,285.246,14.679,99.712,-0.0043080
26.84,287.446,14.678,99.703,-0.0047143
27.06,289.646,14.676,99.693,-0.0038448
27.28,291.847,14.675,99.684,-0.0043522
27.5,294.047,14.673,99.674,-0.0049038
27.72,296.248,14.672,99.664,-0.0041269
27.94,298.448,14.671,99.654,-0.0047161
28.16,300.648,14.669,99.645,-0.0041697
28.38,302.849,14.668,99.635,-0.0043538
28.6,305.049,14.666,99.625,-0.0048535
28.82,307.25,14.665,99.615,-0.0043498
29.04,309.45,14.663,99.605,-0.0049405
29.26,311.65,14.662,99.595,-0.0040789
29.48,313.851,14.66,99.584,-0.0049927
29.7,316.051,14.659,99.574,-0.0047644
29.92,318.251,14.657,99.564,-0.0048553
30.14,320.452,14.656,99.553,-0.0049936
30.36,322.652,14.654,99.542,-0.0047135
30.58,324.853,14.652,99.532,-0.0050796
30.8,327.053,14.651,99.521,-0.0051693
31.02,329.253,14.649,99.51,-0.0050778
31.24,331.454,14.648,99.499,-0.0049908
31.46,333.654,14.646,99.488,-0.0057203
31.68,335.855,14.644,99.476,-0.0057587
31.9,338.055,14.643,99.465,-0.0046703
32.12,340.255,14.641,99.453,-0.0056756
32.34,342.456,14.639,99.441,-0.0060853
32.56,344.656,14.637,99.429,-0.0055435
32.78,346.857,14.635,99.416,-0.0055433
33,349.057,14.634,99.403,-0.0056745
33.22,351.257,14.632,99.39,-0.0063187
33.44,353.458,14.63,99.376,-0.0067853
33.66,355.658,14.628,99.362,-0.0065476
33.88,357.859,14.625,99.348,-0.0067283
34.1,360.059,14.623,99.333,-0.0068223
34.32,362.259,14.621,99.318,-0.0068744
34.54,364.46,14.619,99.302,-0.0075120
34.76,366.66,14.616,99.285,-0.0078211
34.99,368.861,14.614,99.267,-0.0081915
35.21,371.061,14.611,99.249,-0.0087864
35.43,373.261,14.608,99.229,-0.0089744
35.64,375.462,14.605,99.207,-0.0103442
35.86,377.662,14.601,99.184,-0.0110847
36.09,379.862,14.597,99.158,-0.0121115
36.31,382.063,14.593,99.129,-0.0136372
36.53,384.263,14.589,99.098,-0.0150641
36.74,386.464,14.583,99.062,-0.0169872
36.96,388.664,14.578,99.023,-0.0186219
37.19,390.864,14.571,98.981,-0.0192168
37.41,393.065,14.565,98.936,-0.0212912
37.63,395.265,14.558,98.887,-0.0227897
37.84,397.466,14.55,98.834,-0.0251143
38.06,399.666,14.541,98.777,-0.0277574
38.29,401.866,14.532,98.714,-0.0290379
38.51,404.067,14.522,98.645,-0.0331198
38.73,406.267,14.511,98.569,-0.0364927
38.94,408.468,14.498,98.484,-0.0405912
39.16,410.668,14.484,98.389,-0.0456960
39.39,412.868,14.469,98.283,-0.0516294
39.61,415.069,14.451,98.163,-0.0581044
39.83,417.269,14.431,98.026,-0.0663004
40.04,419.47,14.407,97.866,-0.0831042
40.26,421.67,14.376,97.656,-0.1164230
40.49,423.87,14.339,97.403,-0.1233060
40.71,426.071,14.296,97.112,-0.1480410
40.93,428.271,14.245,96.763,-0.1647900
41.14,430.472,14.187,96.368,-0.2021630
41.36,432.672,14.111,95.856,-0.2483950
41.59,434.872,14.02,95.236,-0.3321580
41.81,437.073,13.909,94.478,-0.3588600
42.03,439.273,13.778,93.593,-0.4007410
42.24,441.473,13.638,92.642,-0.4006870
42.46,443.674,13.487,91.613,-0.5392770
42.69,445.874,13.282,90.225,-0.6566390
42.91,448.075,13.039,88.573,-0.7978940
43.13,450.275,12.76,86.677,-0.8561910
43.34,452.475,12.434,84.463,-1.01439
43.57,454.676,12.052,81.867,-1.19359
43.79,456.876,11.605,78.832,-1.43897
44.01,459.077,11.083,75.285,-1.76268
44.23,461.277,10.475,71.153,-2.01892
44.45,463.477,9.774,66.394,-2.31179
44.67,465.678,8.953,60.818,-2.6793
44.89,467.878,8.012,54.424,-3.07687
45.11,470.079,6.967,47.325,-3.33282
45.33,472.279,5.8,39.4,-3.69872
45.55,474.479,4.594,31.207,-3.71542
45.77,476.68,3.37,22.889,-3.5541
45.99,478.88,2.312,15.705,-2.80738
46.2,481.081,1.438,9.765,-2.22468
46.42,483.281,0.8030000,5.458,-1.58871
46.64,485.481,0.4390000,2.984,-0.7335040
46.86,487.682,0.3030000,2.056,-0.1899710
47.08,489.882,0.2750000,1.868,-0.0382583
47.3,492.083,0.2660000,1.805,-0.0183167
47.53,494.283,0.2620000,1.78,-0.0065768
47.75,496.483,0.2610000,1.771,-0.0024883
47.96,498.684,0.2600000,1.767,-0.0010856
48.18,500.884,0.2600000,1.766,-0.0004591
48.4,503.084,0.2600000,1.765,-0.0001587
48.62,505.285,0.2600000,1.765,-0.0001821
48.84,507.485,0.2600000,1.765,-0.0002709
49.06,509.686,0.2600000,1.764,-0.0002196
49.28,511.886,0.2600000,1.764,-0.0002537
49.5,514.086,0.2600000,1.764,-0.0002103
49.72,516.287,0.2600000,1.764,0.0001889
49.94,518.487,0.2600000,1.764,0.0000250
50.16,520.688,0.2600000,1.764,-0.0002567
50.38,522.888,0.2600000,1.764,-0.0003081
50.6,525.088,0.2600000,1.763,0.0001394
50.82,527.289,0.2600000,1.763,-0.0000708
51.04,529.489,0.2590000,1.763,-0.0001265
51.26,531.69,0.2590000,1.762,-0.0000229
51.48,533.89,0.2590000,1.762,0.0001144
51.7,536.09,0.2590000,1.762,0.0000093
51.92,538.291,0.2590000,1.762,-0.0000837
52.14,540.491,0.2590000,1.762,0.0001001
52.36,542.692,0.2590000,1.761,0.0001051
52.58,544.892,0.2590000,1.761,-0.0002454
52.8,547.092,0.2590000,1.761,-0.0001345
53.02,549.293,0.2590000,1.761,0.0000064
53.24,551.493,0.2590000,1.761,-0.0001786
53.46,553.694,0.2590000,1.761,-0.0000901
53.68,555.894,0.2590000,1.761,-0.0001266
53.9,558.094,0.2590000,1.76,0.0002280
54.12,560.295,0.2590000,1.76,-0.0001965
54.34,562.495,0.2590000,1.76,-0.0001638
54.56,564.695,0.2590000,1.759,-0.0000831
54.78,566.896,0.2590000,1.759,-0.0000350
55,569.096,0.2590000,1.759,-0.0003756
55.22,571.297,0.2590000,1.758,-0.0004395
55.44,573.497,0.2590000,1.757,-0.0003587
55.66,575.697,0.2590000,1.756,-0.0005010
55.88,577.898,0.2580000,1.756,-0.0003416
56.1,580.098,0.2580000,1.754,-0.0002919
56.32,582.299,0.2580000,1.753,-0.0005194
56.54,584.499,0.2580000,1.752,-0.0009451
56.76,586.699,0.2580000,1.75,-0.0008498
56.98,588.9,0.2570000,1.748,-0.0003466
57.09,590,0.2570000,1.747,-0.0007171

File: Resin3_0_.csv
1.05,30,14.826,100.03,-0.0008632
1.3,32.2004,14.826,100.034,0.0027751
1.54,34.4008,14.827,100.037,0.0019003
1.78,36.6012,14.827,100.04,0.0013757
2.02,38.8016,14.827,100.042,0.0009720
2.25,41.002,14.828,100.045,0.0006766
2.48,43.2024,14.828,100.048,0.0013443
2.71,45.4028,14.829,100.051,0.0015248
2.94,47.6031,14.829,100.053,0.0011360
3.16,49.8035,14.83,100.056,0.0018357
3.39,52.0039,14.83,100.059,0.0010305
3.61,54.2043,14.83,100.061,0.0010267
3.84,56.4047,14.831,100.064,0.0012555
4.06,58.6051,14.831,100.066,0.0011589
4.29,60.8055,14.831,100.069,0.0014795
4.51,63.0059,14.832,100.071,0.0009223
4.73,65.2063,14.832,100.073,0.0009202
4.95,67.4067,14.832,100.075,0.0009653
5.17,69.6071,14.833,100.077,0.0006884
5.39,71.8075,14.833,100.079,0.0009632
5.61,74.0079,14.833,100.08,0.0008256
5.83,76.2083,14.833,100.082,0.0009613
6.05,78.4086,14.834,100.084,0.0006868
6.27,80.609,14.834,100.086,0.0006410
6.49,82.8094,14.834,100.087,0.0006409
6.71,85.0098,14.834,100.088,0.0007777
6.93,87.2102,14.834,100.09,0.0010519
7.15,89.4106,14.835,100.091,0.0003200
7.37,91.611,14.835,100.092,0.0004577
7.59,93.8114,14.835,100.093,0.0006861
7.81,96.0118,14.835,100.094,0.0002286
8.03,98.2122,14.835,100.094,0.0001372
8.25,100.413,14.835,100.095,0.0003204
8.47,102.613,14.835,100.096,0.0003660
8.69,104.813,14.835,100.096,0.0005034
8.91,107.014,14.835,100.096,-0.0002287
9.13,109.214,14.836,100.097,0.0004120
9.35,111.415,14.836,100.097,-0.0001373
9.57,113.615,14.836,100.097,-0.0000000
9.79,115.815,14.836,100.097,0.0001374
10.01,118.016,14.836,100.097,0.0000000
10.23,120.216,14.836,100.097,0.0000000
10.45,122.417,14.836,100.097,-0.0001376
10.67,124.617,14.836,100.097,0.0001375
10.89,126.817,14.836,100.098,0.0004122
11.11,129.018,14.836,100.098,0.0002294
11.33,131.218,14.836,100.099,0.0003211
11.55,133.418,14.836,100.1,0.0004584
11.77,135.619,14.836,100.1,0.0000000
11.99,137.819,14.836,100.1,-0.0002285
12.21,140.02,14.836,100.099,-0.0007293
12.43,142.22,14.835,100.096,-0.0018188
12.65,144.42,14.835,100.092,-0.0020011
12.87,146.621,14.834,100.088,-0.0014155
13.09,148.821,14.834,100.085,-0.0013774
13.31,151.022,14.834,100.083,-0.0009195
13.53,153.222,14.833,100.081,-0.0008276
13.75,155.422,14.833,100.08,-0.0004594
13.97,157.623,14.833,100.078,-0.0009644
14.19,159.823,14.833,100.077,-0.0005041
14.41,162.024,14.832,100.075,-0.0005972
14.63,164.224,14.832,100.073,-0.0005964
14.85,166.424,14.832,100.071,-0.0006419
15.08,168.625,14.832,100.07,-0.0008234
15.3,170.825,14.831,100.068,-0.0009162
15.52,173.026,14.831,100.065,-0.0010543
15.73,175.226,14.831,100.063,-0.0010997
15.95,177.426,14.83,100.061,-0.0010984
16.18,179.627,14.83,100.059,-0.0009168
16.4,181.827,14.83,100.057,-0.0005035
16.62,184.028,14.829,100.055,-0.0009162
16.84,186.228,14.829,100.053,-0.0012379
17.06,188.428,14.829,100.05,-0.0008686
17.28,190.629,14.828,100.048,-0.0013321
17.5,192.829,14.828,100.045,-0.0013262
17.72,195.029,14.828,100.043,-0.0010999
17.94,197.23,14.827,100.04,-0.0009164
18.16,199.43,14.827,100.037,-0.0013266
18.38,201.631,14.826,100.035,-0.0010542
18.6,203.831,14.826,100.032,-0.0011916
18.82,206.031,14.826,100.029,-0.0010544
19.04,208.232,14.825,100.027,-0.0008249
19.26,210.432,14.825,100.024,-0.0012829
19.48,212.633,14.824,100.021,-0.0014657
19.7,214.833,14.824,100.018,-0.0014643
19.92,217.033,14.823,100.015,-0.0012380
20.14,219.234,14.823,100.012,-0.0014211
20.36,221.434,14.822,100.008,-0.0014222
20.58,223.635,14.822,100.005,-0.0015557
20.8,225.835,14.822,100.002,-0.0012372
21.02,228.035,14.821,99.999,-0.0015094
21.24,230.236,14.821,99.996,-0.0014218
21.46,232.436,14.82,99.993,-0.0016036
21.68,234.637,14.82,99.99,-0.0016026
21.9,236.837,14.819,99.986,-0.0015124
22.12,239.037,14.819,99.983,-0.0017407
22.34,241.238,14.818,99.979,-0.0016520
22.56,243.438,14.818,99.976,-0.0017841
22.78,245.639,14.817,99.972,-0.0015103
23,247.839,14.817,99.968,-0.0017869
23.22,250.039,14.816,99.965,-0.0013746
23.44,252.24,14.815,99.961,-0.0017383
23.66,254.44,14.815,99.957,-0.0014650
23.88,256.64,14.814,99.953,-0.0015600
24.1,258.841,14.814,99.949,-0.0019725
24.32,261.041,14.813,99.945,-0.0019220
24.54,263.242,14.812,99.941,-0.0018308
24.76,265.442,14.812,99.937,-0.0021074
24.98,267.642,14.811,99.933,-0.0018339
25.2,269.843,14.811,99.929,-0.0016469
25.42,272.043,14.81,99.925,-0.0020657
25.64,274.244,14.809,99.92,-0.0023352
25.86,276.444,14.809,99.916,-0.0021481
26.08,278.644,14.808,99.911,-0.0023403
26.31,280.845,14.807,99.906,-0.0019255
26.53,283.045,14.807,99.902,-0.0022869
26.74,285.246,14.806,99.897,-0.0020616
26.97,287.446,14.805,99.892,-0.0023840
27.18,289.646,14.804,99.887,-0.0025151
27.41,291.847,14.804,99.882,-0.0021520
27.63,294.047,14.803,99.877,-0.0022018
27.84,296.248,14.802,99.871,-0.0027015
28.07,298.448,14.801,99.866,-0.0024255
28.28,300.648,14.801,99.86,-0.0025655
28.51,302.849,14.8,99.855,-0.0024748
28.73,305.049,14.799,99.849,-0.0026596
28.94,307.25,14.798,99.843,-0.0026566
29.17,309.45,14.797,99.838,-0.0025627
29.39,311.65,14.796,99.832,-0.0027473
29.61,313.851,14.795,99.826,-0.0027915
29.83,316.051,14.795,99.82,-0.0029341
30.05,318.251,14.794,99.814,-0.0030231
30.27,320.452,14.793,99.807,-0.0029734
30.49,322.652,14.792,99.8,-0.0030661
30.71,324.853,14.791,99.794,-0.0033895
30.93,327.053,14.79,99.787,-0.0030566
31.15,329.253,14.789,99.78,-0.0030204
31.37,331.454,14.787,99.772,-0.0034811
31.59,333.654,14.786,99.765,-0.0032420
31.81,335.855,14.785,99.758,-0.0035767
32.03,338.055,14.784,99.75,-0.0035237
32.25,340.255,14.783,99.742,-0.0034392
32.47,342.456,14.782,99.734,-0.0037977
32.69,344.656,14.781,99.726,-0.0040241
32.91,346.857,14.779,99.717,-0.0039872
33.13,349.057,14.778,99.708,-0.0039872
33.35,351.257,14.777,99.699,-0.0044349
33.57,353.458,14.775,99.689,-0.0044471
33.79,355.658,14.774,99.679,-0.0049038
34.01,357.859,14.772,99.669,-0.0046161
34.23,360.059,14.77,99.658,-0.0048903
34.45,362.259,14.769,99.646,-0.0055933
34.67,364.46,14.767,99.634,-0.0056849
34.89,366.66,14.765,99.621,-0.0059448
35.11,368.861,14.763,99.607,-0.0064923
35.33,371.061,14.761,99.592,-0.0071966
35.55,373.261,14.758,99.576,-0.0076508
35.77,375.462,14.756,99.558,-0.0085243
35.99,377.662,14.753,99.539,-0.0091408
36.21,379.862,14.75,99.518,-0.0103442
36.43,382.063,14.746,99.494,-0.0113240
36.65,384.263,14.742,99.467,-0.0124908
36.87,386.464,14.738,99.437,-0.0144389
37.09,388.664,14.733,99.403,-0.0166361
37.31,390.864,14.727,99.365,-0.0182815
37.53,393.065,14.721,99.322,-0.0207494
37.75,395.265,14.713,99.273,-0.0231812
37.97,397.466,14.705,99.218,-0.0260893
38.19,399.666,14.696,99.156,-0.0304375
38.41,401.866,14.686,99.086,-0.0337182
38.63,404.067,14.674,99.007,-0.0385038
38.85,406.267,14.661,98.917,-0.0431556
39.07,408.468,14.646,98.816,-0.0478217
39.29,410.668,14.629,98.703,-0.0545120
39.51,412.868,14.61,98.576,-0.0607664
39.73,415.069,14.589,98.433,-0.0693123
39.95,417.269,14.564,98.264,-0.0851933
40.17,419.47,14.531,98.042,-0.1117890
40.39,421.67,14.491,97.774,-0.1338700
40.61,423.87,14.445,97.462,-0.1468120
40.83,426.071,14.393,97.11,-0.1759600
41.05,428.271,14.332,96.699,-0.2074160
41.27,430.472,14.253,96.167,-0.2788520
41.49,432.672,14.154,95.499,-0.3356480
41.71,434.872,14.043,94.747,-0.3661990
41.93,437.073,13.915,93.886,-0.4177520
42.15,439.273,13.767,92.888,-0.4947250
42.37,441.473,13.591,91.702,-0.5904670
42.59,443.674,13.382,90.291,-0.6944850
42.81,445.874,13.14,88.655,-0.8329670
43.03,448.075,12.854,86.724,-0.9680710
43.25,450.275,12.515,84.441,-1.11928
43.47,452.475,12.102,81.655,-1.41128
43.69,454.676,11.612,78.346,-1.65541
43.91,456.876,11.029,74.411,-1.91277
44.13,459.077,10.332,69.711,-2.29514
44.35,461.277,9.532,64.315,-2.70454
44.57,463.477,8.621,58.164,-2.9761
44.79,465.678,7.605,51.309,-3.25875
45.01,467.878,6.479,43.716,-3.46578
45.23,470.079,5.296,35.735,-3.69607
45.45,472.279,4.09,27.598,-3.69346
45.67,474.479,2.923,19.719,-3.42607
45.89,476.68,1.901,12.824,-2.85888
46.11,478.88,1.088,7.343,-2.03674
46.33,481.081,0.5770000,3.893,-1.10584
46.54,483.281,0.3480000,2.349,-0.3646260
46.76,485.481,0.2910000,1.967,-0.0487470
46.99,487.682,0.2800000,1.891,-0.0256412
47.21,489.882,0.2750000,1.855,-0.0095249
47.43,492.083,0.2730000,1.842,-0.0035547
47.65,494.283,0.2720000,1.838,-0.0011937
47.87,496.483,0.2720000,1.836,-0.0004317
48.09,498.684,0.2720000,1.836,-0.0004431
48.31,500.884,0.2720000,1.835,0.0000108
48.53,503.084,0.2720000,1.835,-0.0001944
48.75,505.285,0.2720000,1.835,-0.0001174
48.97,507.485,0.2720000,1.835,-0.0000351
49.19,509.686,0.2720000,1.835,-0.0001552
49.41,511.886,0.2720000,1.835,0.0001497
49.63,514.086,0.2720000,1.835,0.0001345
49.85,516.287,0.2720000,1.836,0.0000878
50.07,518.487,0.2720000,1.836,0.0001303
50.29,520.688,0.2720000,1.836,-0.0000759
50.51,522.888,0.2720000,1.835,-0.0001372
50.73,525.088,0.2720000,1.836,-0.0001078
50.94,527.289,0.2720000,1.835,-0.0001332
51.16,529.489,0.2720000,1.835,0.0001186
51.39,531.69,0.2720000,1.835,-0.0000329
51.61,533.89,0.2720000,1.835,-0.0001158
51.83,536.09,0.2720000,1.835,0.0000895
52.05,538.291,0.2720000,1.835,0.0001574
52.27,540.491,0.2720000,1.835,-0.0000715
52.49,542.692,0.2720000,1.835,-0.0001692
52.71,544.892,0.2720000,1.835,-0.0000494
52.93,547.092,0.2720000,1.835,0.0001494
53.14,549.293,0.2720000,1.834,-0.0001877
53.36,551.493,0.2720000,1.834,-0.0001645
53.59,553.694,0.2720000,1.833,-0.0003620
53.81,555.894,0.2720000,1.833,-0.0003074
54.03,558.094,0.2710000,1.832,-0.0002428
54.24,560.295,0.2710000,1.831,-0.0002112
54.46,562.495,0.2710000,1.83,-0.0006546
54.69,564.695,0.2710000,1.829,-0.0003451
54.91,566.896,0.2710000,1.827,-0.0006506
55.13,569.096,0.2710000,1.826,-0.0004817
55.34,571.297,0.2710000,1.825,-0.0003167
55.56,573.497,0.2700000,1.825,-0.0004719
55.78,575.697,0.2700000,1.824,-0.0002933
56,577.898,0.2700000,1.823,-0.0002633
56.22,580.098,0.2700000,1.823,-0.0001592
56.44,582.299,0.2700000,1.822,-0.0003305
56.66,584.499,0.2700000,1.821,-0.0002976
56.88,586.699,0.2700000,1.821,-0.0000903
57.1,588.9,0.2700000,1.82,-0.0002667
57.21,590,0.2700000,1.82,0.0000172