Folder: rHDPE_Data_Analysis/R/rHDPE_App/app/www/Output/TGA/Condensed_Data (part 17)

File: Resin15_0__1.csv
0.7500000,30,11.197,100.009,0.0024330
1.04,32.3004,11.198,100.015,-0.0000540
1.31,34.6008,11.198,100.017,0.0010297
1.56,36.9012,11.198,100.017,0.0007004
1.81,39.2016,11.198,100.019,0.0010807
2.06,41.5021,11.198,100.019,0.0003883
2.3,43.8025,11.198,100.021,0.0016408
2.54,46.1029,11.199,100.023,0.0009101
2.78,48.4033,11.199,100.026,0.0007136
3.02,50.7037,11.199,100.028,0.0014658
3.26,53.0041,11.199,100.031,0.0010341
3.49,55.3045,11.2,100.033,0.0010284
3.73,57.6049,11.2,100.036,0.0007452
3.96,59.9053,11.2,100.038,0.0010681
4.19,62.2058,11.2,100.04,0.0012034
4.42,64.5062,11.201,100.042,0.0006921
4.65,66.8066,11.201,100.044,0.0011976
4.89,69.107,11.201,100.047,0.0008277
5.12,71.4074,11.201,100.049,0.0012401
5.35,73.7078,11.202,100.051,0.0003211
5.58,76.0082,11.202,100.052,0.0006422
5.81,78.3086,11.202,100.054,0.0005495
6.04,80.609,11.202,100.056,0.0006416
6.27,82.9094,11.202,100.057,0.0006871
6.5,85.2099,11.203,100.059,0.0003662
6.73,87.5103,11.203,100.06,0.0006869
6.96,89.8107,11.203,100.061,-0.0000457
7.19,92.1111,11.203,100.062,0.0003200
7.42,94.4115,11.203,100.063,0.0004117
7.65,96.7119,11.203,100.063,0.0003201
7.88,99.0123,11.203,100.064,0.0001372
8.11,101.313,11.203,100.065,0.0002286
8.34,103.613,11.203,100.066,-0.0000000
8.57,105.914,11.203,100.066,0.0005041
8.8,108.214,11.203,100.066,0.0003662
9.03,110.514,11.203,100.067,0.0003206
9.26,112.815,11.203,100.066,0.0004579
9.49,115.115,11.203,100.066,-0.0003210
9.72,117.416,11.203,100.066,0.0005492
9.95,119.716,11.203,100.066,0.0002289
10.18,122.016,11.203,100.066,0.0000000
10.41,124.317,11.203,100.066,0.0002751
10.64,126.617,11.203,100.066,0.0003206
10.87,128.918,11.204,100.067,0.0005492
11.1,131.218,11.204,100.068,0.0007802
11.33,133.518,11.204,100.069,0.0002294
11.56,135.819,11.204,100.069,0.0006878
11.79,138.119,11.204,100.069,-0.0000457
12.02,140.42,11.203,100.066,-0.0016401
12.25,142.72,11.203,100.061,-0.0023587
12.48,145.021,11.202,100.056,-0.0020063
12.71,147.321,11.202,100.051,-0.0016966
12.94,149.621,11.201,100.048,-0.0011945
13.17,151.922,11.201,100.046,-0.0006427
13.4,154.222,11.201,100.044,-0.0016085
13.63,156.523,11.201,100.042,-0.0004138
13.86,158.823,11.201,100.04,-0.0007772
14.09,161.123,11.2,100.038,-0.0005969
14.32,163.424,11.2,100.036,-0.0004133
14.55,165.724,11.2,100.035,-0.0008710
14.78,168.025,11.2,100.033,-0.0009158
15.01,170.325,11.2,100.031,-0.0001833
15.24,172.625,11.199,100.029,-0.0006422
15.47,174.926,11.199,100.028,-0.0004128
15.7,177.226,11.199,100.026,-0.0008230
15.93,179.527,11.199,100.024,-0.0008732
16.17,181.827,11.199,100.022,-0.0006878
16.4,184.128,11.198,100.02,-0.0007776
16.63,186.428,11.198,100.018,-0.0010989
16.85,188.728,11.198,100.016,-0.0008714
17.08,191.029,11.198,100.014,-0.0004575
17.32,193.329,11.197,100.012,-0.0013295
17.54,195.63,11.197,100.01,-0.0016148
17.78,197.93,11.197,100.007,-0.0011878
18.01,200.23,11.197,100.005,-0.0010974
18.24,202.531,11.196,100.002,-0.0005500
18.47,204.831,11.196,99.999,-0.0011926
18.7,207.132,11.196,99.997,-0.0016032
18.93,209.432,11.195,99.995,-0.0010537
19.16,211.732,11.195,99.992,-0.0010070
19.39,214.033,11.195,99.989,-0.0009149
19.62,216.333,11.195,99.986,-0.0016499
19.85,218.634,11.194,99.984,-0.0010999
20.08,220.934,11.194,99.981,-0.0015118
20.31,223.235,11.194,99.978,-0.0015099
20.54,225.535,11.193,99.975,-0.0013283
20.77,227.835,11.193,99.971,-0.0015596
21,230.136,11.192,99.968,-0.0015592
21.23,232.436,11.192,99.965,-0.0009611
21.46,234.737,11.192,99.961,-0.0010084
21.69,237.037,11.191,99.958,-0.0013762
21.92,239.337,11.191,99.954,-0.0014185
22.15,241.638,11.19,99.95,-0.0014657
22.38,243.938,11.19,99.946,-0.0013291
22.61,246.239,11.19,99.943,-0.0016977
22.84,248.539,11.189,99.939,-0.0016914
23.07,250.839,11.189,99.935,-0.0017886
23.3,253.14,11.188,99.931,-0.0016040
23.53,255.44,11.188,99.927,-0.0019698
23.76,257.741,11.187,99.923,-0.0019260
23.99,260.041,11.187,99.919,-0.0018315
24.22,262.341,11.186,99.914,-0.0015596
24.45,264.642,11.186,99.91,-0.0025189
24.68,266.942,11.185,99.905,-0.0025697
24.91,269.243,11.185,99.9,-0.0010979
25.14,271.543,11.184,99.896,-0.0020194
25.37,273.844,11.184,99.891,-0.0022366
25.6,276.144,11.183,99.886,-0.0024334
25.83,278.444,11.183,99.882,-0.0021560
26.06,280.745,11.182,99.876,-0.0021990
26.29,283.045,11.182,99.871,-0.0026557
26.52,285.346,11.181,99.866,-0.0022498
26.76,287.646,11.18,99.86,-0.0024743
26.98,289.946,11.18,99.855,-0.0023309
27.21,292.247,11.179,99.849,-0.0022902
27.44,294.547,11.178,99.843,-0.0023322
27.68,296.848,11.178,99.837,-0.0030745
27.91,299.148,11.177,99.831,-0.0027854
28.13,301.448,11.176,99.825,-0.0028466
28.37,303.749,11.176,99.819,-0.0030723
28.59,306.049,11.175,99.812,-0.0026965
28.83,308.35,11.174,99.806,-0.0029784
29.06,310.65,11.174,99.8,-0.0027971
29.29,312.951,11.173,99.793,-0.0024739
29.52,315.251,11.172,99.787,-0.0030678
29.75,317.551,11.171,99.78,-0.0022906
29.98,319.852,11.171,99.774,-0.0031136
30.21,322.152,11.17,99.767,-0.0031606
30.44,324.453,11.169,99.759,-0.0031651
30.67,326.753,11.168,99.752,-0.0036543
30.9,329.053,11.167,99.745,-0.0036193
31.13,331.354,11.167,99.737,-0.0032139
31.36,333.654,11.166,99.729,-0.0032551
31.59,335.955,11.165,99.721,-0.0036994
31.82,338.255,11.164,99.713,-0.0038883
32.05,340.555,11.163,99.705,-0.0040419
32.28,342.856,11.162,99.697,-0.0037068
32.51,345.156,11.161,99.688,-0.0039391
32.74,347.457,11.16,99.68,-0.0039248
32.97,349.757,11.159,99.671,-0.0042661
33.2,352.058,11.158,99.662,-0.0041591
33.43,354.358,11.157,99.652,-0.0040773
33.66,356.658,11.156,99.642,-0.0041690
33.89,358.959,11.155,99.632,-0.0047118
34.12,361.259,11.154,99.62,-0.0046703
34.35,363.56,11.152,99.609,-0.0056725
34.58,365.86,11.151,99.596,-0.0054976
34.81,368.16,11.149,99.583,-0.0055861
35.04,370.461,11.148,99.569,-0.0061735
35.27,372.761,11.146,99.554,-0.0068285
35.5,375.062,11.144,99.538,-0.0073718
35.73,377.362,11.142,99.52,-0.0079641
35.96,379.662,11.14,99.5,-0.0090152
36.19,381.963,11.138,99.478,-0.0102051
36.42,384.263,11.135,99.453,-0.0110207
36.65,386.564,11.132,99.425,-0.0130566
36.88,388.864,11.128,99.394,-0.0139601
37.11,391.164,11.124,99.36,-0.0155507
37.34,393.465,11.12,99.323,-0.0170235
37.57,395.765,11.115,99.28,-0.0201192
37.8,398.066,11.11,99.233,-0.0215864
38.03,400.366,11.104,99.18,-0.0243701
38.26,402.667,11.098,99.121,-0.0271978
38.49,404.967,11.09,99.056,-0.0305135
38.72,407.267,11.082,98.982,-0.0334707
38.95,409.568,11.073,98.899,-0.0383947
39.18,411.868,11.062,98.805,-0.0430497
39.41,414.169,11.05,98.699,-0.0488374
39.64,416.469,11.037,98.579,-0.0556267
39.87,418.769,11.022,98.441,-0.0646709
40.1,421.07,11.004,98.281,-0.0768138
40.33,423.37,10.981,98.079,-0.0966575
40.56,425.671,10.951,97.816,-0.1300840
40.79,427.971,10.914,97.484,-0.1517370
41.02,430.271,10.868,97.074,-0.1924940
41.25,432.572,10.815,96.6,-0.2163700
41.48,434.872,10.755,96.061,-0.2591180
41.71,437.173,10.684,95.423,-0.2923990
41.94,439.473,10.6,94.677,-0.3502290
42.17,441.774,10.5,93.787,-0.4506120
42.4,444.074,10.366,92.587,-0.6016000
42.63,446.374,10.197,91.079,-0.7485820
42.86,448.675,10.012,89.423,-0.7078830
43.09,450.975,9.775,87.304,-1.08615
43.32,453.276,9.477,84.645,-1.20464
43.55,455.576,9.098,81.261,-1.59212
43.78,457.876,8.663,77.372,-2.11705
44.01,460.177,8.178,73.042,-2.0054
44.24,462.477,7.608,67.953,-2.42372
44.47,464.778,6.934,61.932,-2.99359
44.7,467.078,6.159,55.012,-3.04018
44.93,469.378,5.34,47.693,-3.35246
45.16,471.679,4.43,39.571,-3.60335
45.39,473.979,3.455,30.862,-3.7294
45.62,476.28,2.468,22.042,-3.75909
45.85,478.58,1.544,13.792,-3.35627
46.08,480.881,0.7930000,7.082,-2.38498
46.31,483.181,0.3020000,2.695,-1.37203
46.54,485.481,0.0800000,0.7170000,-0.4391920
46.76,487.782,0.0290000,0.2620000,-0.0479075
46.99,490.082,0.0190000,0.1670000,-0.0276686
47.23,492.383,0.0140000,0.1280000,-0.0090153
47.46,494.683,0.0130000,0.1160000,-0.0028874
47.69,496.983,0.0130000,0.1130000,-0.0009954
47.92,499.284,0.0120000,0.1110000,-0.0003005
48.15,501.584,0.0120000,0.1110000,0.0001002
48.38,503.885,0.0120000,0.1110000,0.0002304
48.61,506.185,0.0120000,0.1110000,-0.0002604
48.84,508.485,0.0130000,0.1120000,0.0000077
49.07,510.786,0.0130000,0.1120000,0.0004650
49.29,513.086,0.0130000,0.1120000,0.0003515
49.53,515.387,0.0130000,0.1130000,-0.0000914
49.76,517.687,0.0130000,0.1130000,0.0002379
49.99,519.987,0.0130000,0.1130000,0.0000893
50.21,522.288,0.0130000,0.1130000,-0.0001494
50.44,524.588,0.0130000,0.1130000,0.0003908
50.68,526.889,0.0130000,0.1130000,0.0002527
50.91,529.189,0.0130000,0.1130000,-0.0002425
51.14,531.49,0.0130000,0.1140000,-0.0004222
51.36,533.79,0.0130000,0.1130000,-0.0000421
51.59,536.09,0.0130000,0.1130000,0.0002470
51.83,538.391,0.0130000,0.1130000,-0.0002801
52.06,540.691,0.0130000,0.1130000,0.0004472
52.29,542.992,0.0130000,0.1130000,0.0001515
52.51,545.292,0.0130000,0.1130000,-0.0004951
52.74,547.592,0.0130000,0.1120000,0.0000841
52.98,549.893,0.0130000,0.1120000,0.0001865
53.21,552.193,0.0120000,0.1120000,-0.0004699
53.43,554.494,0.0120000,0.1110000,-0.0001392
53.66,556.794,0.0120000,0.1100000,-0.0008700
53.89,559.094,0.0120000,0.1100000,0.0001979
54.12,561.395,0.0120000,0.1090000,-0.0004367
54.35,563.695,0.0120000,0.1080000,-0.0004979
54.58,565.996,0.0120000,0.1070000,-0.0000792
54.81,568.296,0.0120000,0.1060000,-0.0005409
55.04,570.597,0.0120000,0.1050000,-0.0001119
55.27,572.897,0.0120000,0.1050000,-0.0007813
55.5,575.197,0.0120000,0.1040000,-0.0001423
55.73,577.498,0.0120000,0.1030000,-0.0006164
55.96,579.798,0.0120000,0.1030000,0.0000378
56.19,582.099,0.0110000,0.1020000,-0.0002625
56.42,584.399,0.0110000,0.1020000,0.0000266
56.65,586.699,0.0110000,0.1010000,-0.0002929
56.88,589,0.0110000,0.1010000,0.0002571
56.98,590,0.0110000,0.1010000,-0.0003393

File: Resin15_1__1.csv
0.6800000,30,16.097,100.011,0.0102764
0.9700000,32.2004,16.099,100.019,0.0065026
1.23,34.4008,16.1,100.026,-0.0002111
1.48,36.6012,16.101,100.031,0.0013659
1.72,38.8016,16.101,100.035,0.0029103
1.96,41.002,16.102,100.039,0.0006803
2.19,43.2024,16.102,100.042,0.0012030
2.42,45.4028,16.103,100.045,0.0020050
2.65,47.6031,16.103,100.048,0.0011893
2.88,49.8035,16.104,100.05,0.0009458
3.1,52.0039,16.104,100.053,0.0010809
3.33,54.2043,16.105,100.056,0.0014990
3.55,56.4047,16.105,100.058,0.0006971
3.78,58.6051,16.105,100.061,0.0012074
4,60.8055,16.106,100.064,0.0009718
4.22,63.0059,16.106,100.066,0.0012918
4.44,65.2063,16.107,100.069,0.0013842
4.66,67.4067,16.107,100.071,0.0008757
4.89,69.6071,16.107,100.073,0.0007829
5.11,71.8075,16.108,100.075,0.0012884
5.33,74.0079,16.108,100.077,0.0008729
5.55,76.2083,16.108,100.08,0.0011029
5.77,78.4086,16.109,100.082,0.0009181
5.99,80.609,16.109,100.085,0.0011006
6.21,82.8094,16.11,100.086,0.0003208
6.43,85.0098,16.11,100.088,0.0006876
6.65,87.2102,16.11,100.089,0.0007794
6.87,89.4106,16.11,100.091,0.0009134
7.09,91.611,16.111,100.092,0.0007327
7.31,93.8114,16.111,100.094,0.0006872
7.53,96.0118,16.111,100.096,0.0013788
7.75,98.2122,16.111,100.097,0.0005958
7.97,100.413,16.112,100.099,0.0005037
8.19,102.613,16.112,100.1,0.0010551
8.41,104.813,16.112,100.102,0.0005001
8.63,107.014,16.112,100.103,0.0004571
8.85,109.214,16.112,100.104,0.0005080
9.08,111.415,16.112,100.105,0.0005986
9.3,113.615,16.113,100.106,0.0004142
9.52,115.815,16.113,100.107,0.0009222
9.74,118.016,16.113,100.108,-0.0000455
9.96,120.216,16.113,100.109,0.0002741
10.18,122.417,16.113,100.11,0.0005939
10.4,124.617,16.113,100.11,0.0004571
10.62,126.817,16.113,100.111,0.0003202
10.83,129.018,16.114,100.111,0.0004107
11.05,131.218,16.114,100.112,0.0003645
11.27,133.418,16.114,100.112,0.0001374
11.5,135.619,16.114,100.113,0.0002293
11.72,137.819,16.114,100.113,0.0000921
11.94,140.02,16.114,100.114,0.0000000
12.16,142.22,16.114,100.115,0.0000918
12.38,144.42,16.114,100.115,0.0008199
12.6,146.621,16.114,100.116,0.0003185
12.82,148.821,16.114,100.117,0.0000917
13.04,151.022,16.115,100.118,0.0000912
13.25,153.222,16.115,100.118,0.0001823
13.48,155.422,16.115,100.118,-0.0001351
13.69,157.623,16.115,100.118,-0.0006452
13.92,159.823,16.114,100.116,-0.0010688
14.14,162.024,16.114,100.114,-0.0015164
14.36,164.224,16.113,100.111,-0.0009135
14.58,166.424,16.113,100.108,-0.0010476
14.8,168.625,16.113,100.105,-0.0013745
15.02,170.825,16.112,100.104,-0.0009230
15.25,173.026,16.112,100.103,-0.0007119
15.47,175.226,16.112,100.103,0.0003245
15.69,177.426,16.112,100.102,-0.0006334
15.9,179.627,16.112,100.101,-0.0006801
16.13,181.827,16.112,100.1,-0.0006771
16.34,184.028,16.112,100.099,-0.0005871
16.56,186.228,16.112,100.099,-0.0003636
16.78,188.428,16.111,100.098,-0.0009097
17,190.629,16.111,100.097,-0.0002723
17.22,192.829,16.111,100.096,-0.0003680
17.43,195.029,16.111,100.095,-0.0002736
17.66,197.23,16.111,100.095,-0.0000917
17.88,199.43,16.111,100.094,-0.0001381
18.1,201.631,16.111,100.093,-0.0004146
18.32,203.831,16.111,100.092,-0.0003703
18.54,206.031,16.11,100.092,0.0002764
18.76,208.232,16.11,100.091,-0.0005043
18.98,210.432,16.11,100.09,-0.0002796
19.2,212.633,16.11,100.089,-0.0004853
19.42,214.833,16.11,100.087,-0.0005095
19.64,217.033,16.11,100.086,0.0000917
19.86,219.234,16.109,100.085,-0.0004551
20.08,221.434,16.109,100.084,-0.0009174
20.3,223.635,16.109,100.083,-0.0005949
20.52,225.835,16.109,100.081,-0.0006726
20.74,228.035,16.108,100.08,-0.0005163
20.96,230.236,16.108,100.079,-0.0002769
21.18,232.436,16.108,100.078,-0.0004099
21.4,234.637,16.108,100.076,-0.0002755
21.62,236.837,16.108,100.075,-0.0005033
21.84,239.037,16.107,100.073,-0.0004520
22.06,241.238,16.107,100.072,-0.0005013
22.28,243.438,16.107,100.07,-0.0007689
22.51,245.639,16.107,100.069,-0.0007744
22.74,247.839,16.106,100.067,-0.0005986
22.96,250.039,16.106,100.065,-0.0008806
23.2,252.24,16.106,100.063,-0.0004381
23.41,254.44,16.106,100.062,-0.0005759
23.62,256.64,16.105,100.06,-0.0009227
23.83,258.841,16.105,100.057,-0.0008470
24.04,261.041,16.105,100.055,-0.0009888
24.26,263.242,16.104,100.053,-0.0010423
24.48,265.442,16.104,100.051,-0.0011765
24.7,267.642,16.103,100.048,-0.0013103
24.92,269.843,16.103,100.045,-0.0010144
25.13,272.043,16.103,100.043,-0.0014706
25.35,274.244,16.102,100.041,-0.0011029
25.57,276.444,16.102,100.038,-0.0010821
25.79,278.644,16.101,100.035,-0.0011236
26.02,280.845,16.101,100.033,-0.0013531
26.23,283.045,16.101,100.03,-0.0010748
26.46,285.246,16.1,100.028,-0.0013250
26.69,287.446,16.1,100.025,-0.0019657
26.91,289.646,16.099,100.022,-0.0015586
27.13,291.847,16.099,100.018,-0.0015032
27.36,294.047,16.098,100.015,-0.0012629
27.58,296.248,16.098,100.012,-0.0016370
27.8,298.448,16.097,100.008,-0.0016981
28.02,300.648,16.096,100.005,-0.0013679
28.24,302.849,16.096,100.002,-0.0013773
28.46,305.049,16.095,99.998,-0.0014167
28.67,307.25,16.095,99.994,-0.0020365
28.89,309.45,16.094,99.99,-0.0020310
29.11,311.65,16.093,99.986,-0.0017393
29.33,313.851,16.093,99.982,-0.0021723
29.54,316.051,16.092,99.977,-0.0023071
29.77,318.251,16.091,99.973,-0.0021087
29.99,320.452,16.091,99.968,-0.0020556
30.21,322.652,16.09,99.964,-0.0024008
30.43,324.853,16.089,99.959,-0.0021391
30.66,327.053,16.088,99.955,-0.0024383
30.88,329.253,16.088,99.95,-0.0022455
31.1,331.454,16.087,99.945,-0.0021942
31.32,333.654,16.086,99.94,-0.0026417
31.54,335.855,16.085,99.934,-0.0024357
31.75,338.055,16.084,99.929,-0.0024098
31.97,340.255,16.083,99.924,-0.0021325
32.19,342.456,16.082,99.918,-0.0022727
32.41,344.656,16.082,99.913,-0.0026109
32.63,346.857,16.081,99.907,-0.0027906
32.84,349.057,16.08,99.901,-0.0025137
33.07,351.257,16.079,99.895,-0.0024255
33.29,353.458,16.078,99.889,-0.0029466
33.51,355.658,16.077,99.884,-0.0028846
33.73,357.859,16.076,99.877,-0.0025759
33.95,360.059,16.075,99.871,-0.0027788
34.17,362.259,16.074,99.865,-0.0028783
34.39,364.46,16.073,99.859,-0.0031736
34.61,366.66,16.072,99.853,-0.0025595
34.83,368.861,16.071,99.846,-0.0032225
35.06,371.061,16.07,99.838,-0.0028954
35.28,373.261,16.069,99.832,-0.0032715
35.49,375.462,16.067,99.825,-0.0033963
35.71,377.662,16.066,99.817,-0.0034501
35.93,379.862,16.065,99.81,-0.0031941
36.15,382.063,16.064,99.802,-0.0038730
36.38,384.263,16.062,99.793,-0.0038038
36.59,386.464,16.061,99.785,-0.0035390
36.81,388.664,16.06,99.777,-0.0038393
37.03,390.864,16.058,99.768,-0.0042936
37.25,393.065,16.057,99.758,-0.0040117
37.47,395.265,16.055,99.749,-0.0044041
37.69,397.466,16.054,99.739,-0.0049564
37.91,399.666,16.052,99.728,-0.0045580
38.13,401.866,16.05,99.717,-0.0050569
38.34,404.067,16.048,99.705,-0.0053068
38.56,406.267,16.046,99.693,-0.0058257
38.78,408.468,16.044,99.679,-0.0065715
39,410.668,16.042,99.665,-0.0065536
39.23,412.868,16.039,99.649,-0.0077491
39.45,415.069,16.036,99.631,-0.0081952
39.67,417.269,16.033,99.612,-0.0096332
39.89,419.47,16.03,99.59,-0.0105078
40.12,421.67,16.026,99.565,-0.0115714
40.34,423.87,16.021,99.538,-0.0135770
40.56,426.071,16.016,99.507,-0.0149281
40.78,428.271,16.011,99.474,-0.0156193
41,430.472,16.005,99.437,-0.0172319
41.22,432.672,15.999,99.398,-0.0184609
41.44,434.872,15.992,99.355,-0.0204174
41.66,437.073,15.984,99.307,-0.0230480
41.87,439.273,15.976,99.255,-0.0249864
42.09,441.473,15.966,99.197,-0.0272917
42.31,443.674,15.956,99.133,-0.0307587
42.53,445.874,15.944,99.061,-0.0350861
42.75,448.075,15.931,98.98,-0.0390768
42.97,450.275,15.917,98.89,-0.0431599
43.19,452.475,15.901,98.788,-0.0491268
43.41,454.676,15.882,98.675,-0.0534011
43.62,456.876,15.862,98.549,-0.0638425
43.84,459.077,15.836,98.385,-0.0785934
44.06,461.277,15.803,98.184,-0.1069620
44.28,463.477,15.763,97.936,-0.1186860
44.5,465.678,15.718,97.656,-0.1372950
44.71,467.878,15.664,97.32,-0.1668350
44.94,470.079,15.602,96.932,-0.1822270
45.16,472.279,15.532,96.498,-0.2156280
45.39,474.479,15.447,95.972,-0.2619360
45.61,476.68,15.347,95.351,-0.3011750
45.83,478.88,15.228,94.612,-0.3637820
46.05,481.081,15.085,93.721,-0.4442760
46.28,483.281,14.906,92.608,-0.5196380
46.5,485.481,14.701,91.333,-0.6912000
46.72,487.682,14.442,89.727,-0.7065590
46.93,489.882,14.158,87.961,-0.9371060
47.15,492.083,13.81,85.802,-1.11548
47.36,494.283,13.35,82.945,-1.28132
47.58,496.483,12.824,79.676,-1.65669
47.81,498.684,12.296,76.392,-1.564
48.03,500.884,11.63,72.255,-2.02445
48.25,503.084,10.911,67.791,-2.23118
48.47,505.285,10.076,62.602,-2.6376
48.7,507.485,9.124,56.685,-2.59733
48.91,509.686,8.095,50.293,-3.2032
49.13,511.886,6.967,43.286,-3.25056
49.35,514.086,5.742,35.677,-3.43415
49.57,516.287,4.469,27.763,-3.64709
49.79,518.487,3.204,19.907,-3.44059
50.01,520.688,2.029,12.608,-3.16378
50.23,522.888,1.074,6.671,-2.27131
50.45,525.088,0.4290000,2.664,-1.31971
50.67,527.289,0.1260000,0.7850000,-0.4432250
50.89,529.489,0.0510000,0.3160000,-0.0564633
51.11,531.69,0.0400000,0.2480000,-0.0218538
51.33,533.89,0.0350000,0.2170000,-0.0076820
51.55,536.09,0.0330000,0.2070000,-0.0028321
51.77,538.291,0.0330000,0.2030000,-0.0007537
51.99,540.491,0.0320000,0.2020000,-0.0005395
52.21,542.692,0.0320000,0.2010000,-0.0000342
52.43,544.892,0.0320000,0.2010000,-0.0005994
52.66,547.092,0.0320000,0.2010000,0.0000972
52.88,549.293,0.0320000,0.2010000,0.0000705
53.08,551.493,0.0320000,0.2010000,0.0002558
53.31,553.694,0.0320000,0.2010000,-0.0004352
53.54,555.894,0.0320000,0.2020000,-0.0002619
53.76,558.094,0.0320000,0.2020000,-0.0003412
53.97,560.295,0.0320000,0.2020000,0.0001473
54.19,562.495,0.0320000,0.2020000,0.0001290
54.41,564.695,0.0320000,0.2020000,0.0000311
54.63,566.896,0.0330000,0.2020000,0.0002251
54.85,569.096,0.0330000,0.2020000,0.0001607
55.07,571.297,0.0330000,0.2020000,0.0000193
55.29,573.497,0.0330000,0.2020000,0.0003516
55.52,575.697,0.0330000,0.2030000,-0.0002272
55.73,577.898,0.0330000,0.2020000,-0.0002680
55.95,580.098,0.0330000,0.2020000,-0.0003007
56.18,582.299,0.0330000,0.2020000,-0.0003633
56.39,584.499,0.0330000,0.2020000,0.0000506
56.61,586.699,0.0330000,0.2020000,0.0001610
56.83,588.9,0.0320000,0.2020000,-0.0002213
56.94,590,0.0320000,0.2020000,0.0000313