Folder: rHDPE_Data_Analysis/R/rHDPE_App/app/www/Output/TGA/Condensed_Data (part 12)

File: Resin10_0_.csv
0.6800000,30,15.047,100.01,0.0030600
0.9700000,32.2004,15.048,100.017,0.0008303
1.23,34.4008,15.049,100.02,0.0015578
1.48,36.6012,15.049,100.022,0.0009065
1.72,38.8016,15.049,100.025,0.0011861
1.95,41.002,15.05,100.027,0.0013650
2.18,43.2024,15.05,100.029,0.0009691
2.42,45.4028,15.05,100.031,0.0009643
2.65,47.6031,15.051,100.032,0.0005732
2.88,49.8035,15.051,100.034,0.0011385
3.1,52.0039,15.051,100.037,0.0006599
3.33,54.2043,15.052,100.038,0.0009383
3.55,56.4047,15.052,100.04,0.0008407
3.78,58.6051,15.052,100.042,0.0010240
4,60.8055,15.052,100.044,0.0006030
4.22,63.0059,15.053,100.045,0.0009714
4.45,65.2063,15.053,100.047,0.0010151
4.67,67.4067,15.053,100.048,0.0003686
4.89,69.6071,15.053,100.049,0.0003683
5.11,71.8075,15.053,100.051,0.0005513
5.33,74.0079,15.054,100.052,0.0004589
5.55,76.2083,15.054,100.053,0.0005042
5.77,78.4086,15.054,100.054,0.0003205
5.99,80.609,15.054,100.054,0.0001374
6.21,82.8094,15.054,100.055,0.0002287
6.43,85.0098,15.054,100.056,0.0003660
6.65,87.2102,15.054,100.057,0.0003661
6.87,89.4106,15.054,100.057,-0.0002746
7.09,91.611,15.054,100.057,0.0000915
7.31,93.8114,15.054,100.058,-0.0000457
7.53,96.0118,15.055,100.058,0.0002744
7.75,98.2122,15.055,100.058,-0.0000915
7.97,100.413,15.055,100.058,0.0003204
8.19,102.613,15.054,100.058,0.0001375
8.41,104.813,15.054,100.058,-0.0002287
8.63,107.014,15.054,100.057,-0.0000915
8.85,109.214,15.054,100.057,0.0003660
9.07,111.415,15.054,100.056,-0.0012010
9.29,113.615,15.054,100.055,-0.0009182
9.51,115.815,15.054,100.054,-0.0004110
9.73,118.016,15.054,100.054,-0.0003643
9.95,120.216,15.054,100.053,-0.0001829
10.17,122.417,15.054,100.053,0.0008236
10.39,124.617,15.054,100.052,0.0000459
10.61,126.817,15.053,100.051,-0.0001375
10.83,129.018,15.053,100.05,0.0005501
11.05,131.218,15.053,100.049,-0.0004126
11.27,133.418,15.053,100.048,-0.0000915
11.49,135.619,15.053,100.047,-0.0009151
11.71,137.819,15.052,100.044,-0.0013702
11.93,140.02,15.052,100.04,-0.0024579
12.15,142.22,15.051,100.034,-0.0026814
12.37,144.42,15.05,100.028,-0.0026035
12.59,146.621,15.049,100.023,-0.0020661
12.81,148.821,15.049,100.019,-0.0017004
13.03,151.022,15.048,100.015,-0.0018825
13.25,153.222,15.047,100.011,-0.0021566
13.47,155.422,15.047,100.007,-0.0022030
13.69,157.623,15.046,100.002,-0.0022033
13.91,159.823,15.045,99.998,-0.0022481
14.13,162.024,15.045,99.993,-0.0022934
14.35,164.224,15.044,99.988,-0.0023810
14.58,166.424,15.043,99.983,-0.0021553
14.8,168.625,15.042,99.978,-0.0031221
15.02,170.825,15.042,99.973,-0.0022915
15.23,173.026,15.041,99.968,-0.0016423
15.46,175.226,15.04,99.962,-0.0029902
15.68,177.426,15.039,99.955,-0.0031130
15.9,179.627,15.038,99.949,-0.0027892
16.12,181.827,15.037,99.943,-0.0027866
16.34,184.028,15.036,99.936,-0.0028865
16.56,186.228,15.035,99.93,-0.0029794
16.78,188.428,15.034,99.924,-0.0029296
17,190.629,15.033,99.917,-0.0029304
17.22,192.829,15.032,99.91,-0.0032518
17.44,195.029,15.031,99.903,-0.0030714
17.66,197.23,15.03,99.896,-0.0032072
17.88,199.43,15.029,99.889,-0.0027000
18.1,201.631,15.028,99.882,-0.0034394
18.32,203.831,15.027,99.875,-0.0030689
18.54,206.031,15.026,99.867,-0.0034388
18.76,208.232,15.025,99.86,-0.0035763
18.98,210.432,15.024,99.852,-0.0032479
19.2,212.633,15.022,99.844,-0.0035770
19.42,214.833,15.021,99.836,-0.0036630
19.64,217.033,15.02,99.829,-0.0035731
19.86,219.234,15.019,99.821,-0.0031164
20.08,221.434,15.018,99.813,-0.0038916
20.3,223.635,15.016,99.805,-0.0035767
20.52,225.835,15.015,99.797,-0.0038046
20.74,228.035,15.014,99.788,-0.0039341
20.96,230.236,15.013,99.78,-0.0035692
21.18,232.436,15.011,99.772,-0.0041674
21.4,234.637,15.01,99.763,-0.0040378
21.62,236.837,15.009,99.755,-0.0038980
21.84,239.037,15.008,99.746,-0.0035195
22.06,241.238,15.006,99.737,-0.0039871
22.28,243.438,15.005,99.729,-0.0039857
22.5,245.639,15.004,99.72,-0.0041182
22.72,247.839,15.002,99.711,-0.0038451
22.94,250.039,15.001,99.702,-0.0038955
23.16,252.24,15,99.693,-0.0039450
23.38,254.44,14.998,99.683,-0.0042093
23.6,256.64,14.997,99.674,-0.0042140
23.82,258.841,14.996,99.666,-0.0040271
24.04,261.041,14.994,99.657,-0.0042758
24.26,263.242,14.993,99.647,-0.0039689
24.48,265.442,14.991,99.638,-0.0046717
24.71,267.642,14.99,99.628,-0.0045914
24.93,269.843,14.988,99.618,-0.0043523
25.14,272.043,14.987,99.608,-0.0042637
25.37,274.244,14.985,99.598,-0.0048130
25.58,276.444,14.984,99.588,-0.0046729
25.81,278.644,14.982,99.577,-0.0049414
26.03,280.845,14.98,99.566,-0.0050384
26.24,283.045,14.979,99.555,-0.0050394
26.47,285.246,14.977,99.544,-0.0053881
26.68,287.446,14.976,99.533,-0.0048624
26.91,289.646,14.974,99.522,-0.0050223
27.13,291.847,14.972,99.51,-0.0051207
27.35,294.047,14.97,99.499,-0.0050454
27.57,296.248,14.969,99.487,-0.0053357
27.79,298.448,14.967,99.475,-0.0056288
28.01,300.648,14.965,99.462,-0.0055861
28.23,302.849,14.963,99.45,-0.0059491
28.45,305.049,14.961,99.437,-0.0061300
28.67,307.25,14.959,99.424,-0.0058925
28.88,309.45,14.957,99.41,-0.0065102
29.11,311.65,14.955,99.396,-0.0061903
29.33,313.851,14.953,99.382,-0.0066850
29.55,316.051,14.951,99.367,-0.0069139
29.77,318.251,14.948,99.351,-0.0073260
29.99,320.452,14.946,99.336,-0.0071860
30.21,322.652,14.943,99.319,-0.0076965
30.43,324.853,14.941,99.302,-0.0079285
30.65,327.053,14.938,99.284,-0.0079168
30.87,329.253,14.935,99.265,-0.0088828
31.09,331.454,14.932,99.245,-0.0089645
31.31,333.654,14.929,99.225,-0.0093407
31.53,335.855,14.926,99.204,-0.0099853
31.75,338.055,14.923,99.182,-0.0104587
31.97,340.255,14.919,99.159,-0.0110389
32.19,342.456,14.916,99.136,-0.0108577
32.41,344.656,14.912,99.112,-0.0110725
32.63,346.857,14.908,99.087,-0.0116758
32.85,349.057,14.904,99.061,-0.0122253
33.07,351.257,14.9,99.034,-0.0126054
33.29,353.458,14.896,99.005,-0.0127677
33.51,355.658,14.892,98.976,-0.0134826
33.73,357.859,14.887,98.945,-0.0142426
33.95,360.059,14.882,98.914,-0.0147166
34.17,362.259,14.877,98.881,-0.0151099
34.39,364.46,14.872,98.847,-0.0151724
34.61,366.66,14.867,98.812,-0.0152186
34.83,368.861,14.862,98.777,-0.0165685
35.05,371.061,14.856,98.739,-0.0173336
35.27,373.261,14.85,98.699,-0.0184744
35.49,375.462,14.844,98.657,-0.0195665
35.71,377.662,14.837,98.613,-0.0203371
35.93,379.862,14.83,98.567,-0.0220952
36.15,382.063,14.823,98.517,-0.0233059
36.37,384.263,14.815,98.463,-0.0249084
36.59,386.464,14.806,98.406,-0.0264867
36.81,388.664,14.797,98.345,-0.0287845
37.03,390.864,14.787,98.279,-0.0309524
37.25,393.065,14.776,98.209,-0.0326047
37.47,395.265,14.765,98.134,-0.0345428
37.69,397.466,14.753,98.056,-0.0367418
37.91,399.666,14.741,97.972,-0.0393989
38.13,401.866,14.727,97.881,-0.0432296
38.35,404.067,14.712,97.784,-0.0453839
38.57,406.267,14.697,97.681,-0.0496069
38.79,408.468,14.679,97.565,-0.0557033
39.01,410.668,14.66,97.436,-0.0614717
39.23,412.868,14.638,97.292,-0.0689529
39.45,415.069,14.613,97.124,-0.0864028
39.67,417.269,14.58,96.903,-0.1102830
39.89,419.47,14.54,96.64,-0.1280490
40.11,421.67,14.495,96.337,-0.1344500
40.33,423.87,14.441,95.981,-0.1698200
40.55,426.071,14.38,95.577,-0.1940690
40.77,428.271,14.309,95.107,-0.2169980
40.99,430.472,14.226,94.549,-0.2768650
41.21,432.672,14.128,93.899,-0.3086490
41.43,434.872,14.02,93.181,-0.3532040
41.65,437.073,13.896,92.358,-0.3970300
41.87,439.273,13.75,91.39,-0.4751050
42.09,441.473,13.581,90.267,-0.5602190
42.31,443.674,13.379,88.921,-0.6659190
42.53,445.874,13.132,87.283,-0.8528970
42.75,448.075,12.837,85.321,-0.9470560
42.97,450.275,12.485,82.978,-1.21234
43.19,452.475,12.057,80.139,-1.45403
43.41,454.676,11.556,76.808,-1.63413
43.63,456.876,10.966,72.883,-1.96374
43.85,459.077,10.27,68.259,-2.18099
44.07,461.277,9.483,63.028,-2.49011
44.29,463.477,8.594,57.121,-2.82363
44.51,465.678,7.604,50.54,-3.16202
44.73,467.878,6.516,43.308,-3.37109
44.95,470.079,5.366,35.667,-3.49524
45.17,472.279,4.203,27.936,-3.48786
45.39,474.479,3.091,20.544,-3.2381
45.61,476.68,2.093,13.91,-2.72342
45.83,478.88,1.308,8.696,-2.02089
46.05,481.081,0.7820000,5.197,-1.26583
46.26,483.281,0.4550000,3.026,-0.7274460
46.49,485.481,0.2810000,1.869,-0.3504750
46.71,487.682,0.2100000,1.398,-0.1019120
46.93,489.882,0.1930000,1.285,-0.0364867
47.15,492.083,0.1850000,1.228,-0.0163449
47.37,494.283,0.1810000,1.205,-0.0061673
47.59,496.483,0.1800000,1.196,-0.0026068
47.81,498.684,0.1790000,1.192,-0.0012507
48.03,500.884,0.1790000,1.189,-0.0009315
48.25,503.084,0.1790000,1.188,-0.0009592
48.47,505.285,0.1780000,1.186,-0.0006292
48.69,507.485,0.1780000,1.185,-0.0006568
48.91,509.686,0.1780000,1.183,-0.0007989
49.13,511.886,0.1780000,1.182,-0.0005968
49.35,514.086,0.1780000,1.181,-0.0005258
49.57,516.287,0.1770000,1.179,-0.0008361
49.79,518.487,0.1770000,1.177,-0.0008863
50.01,520.688,0.1770000,1.175,-0.0008784
50.23,522.888,0.1770000,1.173,-0.0007305
50.45,525.088,0.1760000,1.171,-0.0014022
50.67,527.289,0.1760000,1.169,-0.0007927
50.89,529.489,0.1750000,1.166,-0.0012921
51.11,531.69,0.1750000,1.163,-0.0016576
51.33,533.89,0.1740000,1.159,-0.0018379
51.55,536.09,0.1740000,1.155,-0.0016332
51.77,538.291,0.1730000,1.151,-0.0015003
51.99,540.491,0.1730000,1.148,-0.0018086
52.21,542.692,0.1720000,1.145,-0.0014069
52.43,544.892,0.1720000,1.142,-0.0014330
52.65,547.092,0.1710000,1.139,-0.0016877
52.87,549.293,0.1710000,1.136,-0.0013678
53.09,551.493,0.1700000,1.133,-0.0019152
53.31,553.694,0.1700000,1.129,-0.0016845
53.53,555.894,0.1690000,1.126,-0.0015389
53.75,558.094,0.1690000,1.122,-0.0016290
53.97,560.295,0.1680000,1.119,-0.0016160
54.19,562.495,0.1680000,1.116,-0.0015222
54.41,564.695,0.1670000,1.112,-0.0017817
54.63,566.896,0.1670000,1.108,-0.0019303
54.84,569.096,0.1660000,1.103,-0.0022268
55.06,571.297,0.1650000,1.097,-0.0024025
55.29,573.497,0.1640000,1.092,-0.0028396
55.51,575.697,0.1630000,1.085,-0.0030985
55.73,577.898,0.1620000,1.078,-0.0033824
55.94,580.098,0.1610000,1.07,-0.0036404
56.16,582.299,0.1600000,1.062,-0.0036583
56.39,584.499,0.1590000,1.054,-0.0037460
56.61,586.699,0.1570000,1.046,-0.0034045
56.83,588.9,0.1560000,1.038,-0.0033236
56.94,590,0.1560000,1.035,-0.0030635

File: Resin10_1_.csv
0.5800000,30,9.972,100.013
0.8500000,31.9003,9.973,100.026
1.09,33.8007,9.974,100.036
1.31,35.701,9.975,100.043
1.53,37.6014,9.976,100.05
1.73,39.5017,9.976,100.054
1.93,41.402,9.977,100.059
2.14,43.3024,9.977,100.063
2.34,45.2027,9.977,100.067
2.53,47.1031,9.978,100.071
2.73,49.0034,9.978,100.074
2.93,50.9037,9.978,100.078
3.12,52.8041,9.979,100.081
3.32,54.7044,9.979,100.085
3.51,56.6048,9.98,100.089
3.71,58.5051,9.98,100.093
3.9,60.4054,9.98,100.096
4.09,62.3058,9.981,100.099
4.28,64.2061,9.981,100.103
4.47,66.1064,9.981,100.107
4.66,68.0068,9.982,100.109
4.86,69.9071,9.982,100.112
5.05,71.8075,9.982,100.116
5.24,73.7078,9.983,100.12
5.43,75.6081,9.983,100.122
5.62,77.5085,9.983,100.125
5.81,79.4088,9.983,100.127
6,81.3092,9.983,100.129
6.19,83.2095,9.984,100.132
6.38,85.1098,9.984,100.134
6.57,87.0102,9.984,100.136
6.76,88.9105,9.984,100.138
6.95,90.8109,9.985,100.14
7.14,92.7112,9.985,100.142
7.33,94.6115,9.985,100.144
7.52,96.5119,9.985,100.146
7.71,98.4122,9.985,100.147
7.9,100.313,9.985,100.149
8.09,102.213,9.986,100.15
8.28,104.113,9.986,100.152
8.47,106.014,9.986,100.153
8.66,107.914,9.986,100.153
8.85,109.814,9.986,100.154
9.04,111.715,9.986,100.155
9.23,113.615,9.986,100.157
9.42,115.515,9.986,100.158
9.61,117.416,9.986,100.158
9.8,119.316,9.986,100.158
9.99,121.216,9.986,100.158
10.18,123.117,9.986,100.158
10.37,125.017,9.986,100.158
10.56,126.917,9.986,100.158
10.75,128.818,9.986,100.158
10.95,130.718,9.986,100.158
11.13,132.618,9.986,100.158
11.33,134.519,9.986,100.158
11.51,136.419,9.986,100.158
11.7,138.319,9.986,100.158
11.89,140.22,9.986,100.158
12.08,142.12,9.986,100.158
12.28,144.02,9.986,100.158
12.47,145.921,9.986,100.158
12.66,147.821,9.986,100.157
12.85,149.721,9.986,100.156
13.04,151.622,9.986,100.153
13.23,153.522,9.985,100.149
13.42,155.422,9.985,100.144
13.61,157.323,9.984,100.138
13.8,159.223,9.984,100.134
13.99,161.123,9.984,100.13
14.18,163.024,9.983,100.127
14.37,164.924,9.983,100.124
14.55,166.824,9.983,100.121
14.75,168.725,9.982,100.117
14.94,170.625,9.982,100.114
15.13,172.525,9.982,100.11
15.32,174.426,9.981,100.106
15.51,176.326,9.981,100.103
15.7,178.226,9.98,100.098
15.89,180.127,9.98,100.093
16.08,182.027,9.98,100.089
16.27,183.927,9.979,100.085
16.46,185.828,9.979,100.081
16.65,187.728,9.978,100.075
16.84,189.629,9.978,100.07
17.03,191.529,9.977,100.064
17.22,193.429,9.977,100.059
17.41,195.33,9.976,100.053
17.6,197.23,9.975,100.047
17.79,199.13,9.975,100.041
17.98,201.031,9.974,100.036
18.17,202.931,9.974,100.029
18.36,204.831,9.973,100.022
18.55,206.732,9.972,100.016
18.74,208.632,9.972,100.01
18.93,210.532,9.971,100.003
19.12,212.433,9.97,99.996
19.31,214.333,9.97,99.989
19.49,216.233,9.969,99.982
19.68,218.134,9.968,99.975
19.88,220.034,9.967,99.968
20.07,221.934,9.967,99.961
20.26,223.835,9.966,99.954
20.45,225.735,9.965,99.946
20.64,227.635,9.965,99.939
20.84,229.536,9.964,99.931
21.03,231.436,9.963,99.924
21.22,233.336,9.962,99.917
21.41,235.237,9.962,99.909
21.59,237.137,9.961,99.902
21.78,239.037,9.96,99.894
21.97,240.938,9.959,99.887
22.16,242.838,9.959,99.88
22.35,244.738,9.958,99.872
22.54,246.639,9.957,99.864
22.73,248.539,9.956,99.857
22.92,250.439,9.956,99.85
23.11,252.34,9.955,99.842
23.31,254.24,9.954,99.835
23.49,256.14,9.953,99.828
23.68,258.041,9.953,99.821
23.88,259.941,9.952,99.813
24.07,261.841,9.951,99.807
24.27,263.742,9.951,99.8
24.46,265.642,9.95,99.794
24.65,267.542,9.949,99.787
24.83,269.443,9.949,99.78
25.02,271.343,9.948,99.773
25.21,273.243,9.947,99.767
25.39,275.144,9.947,99.76
25.58,277.044,9.946,99.753
25.77,278.944,9.945,99.746
25.96,280.845,9.945,99.739
26.15,282.745,9.944,99.732
26.34,284.645,9.943,99.725
26.54,286.546,9.943,99.719
26.73,288.446,9.942,99.712
26.92,290.346,9.941,99.704
27.11,292.247,9.94,99.697
27.31,294.147,9.94,99.689
27.49,296.048,9.939,99.682
27.68,297.948,9.938,99.674
27.87,299.848,9.937,99.666
28.06,301.749,9.937,99.658
28.25,303.649,9.936,99.65
28.44,305.549,9.935,99.642
28.63,307.45,9.934,99.633
28.82,309.35,9.933,99.624
29.01,311.25,9.932,99.616
29.2,313.151,9.931,99.607
29.38,315.051,9.931,99.598
29.58,316.951,9.93,99.588
29.77,318.852,9.929,99.579
29.96,320.752,9.928,99.569
30.14,322.652,9.927,99.559
30.33,324.553,9.926,99.549
30.52,326.453,9.925,99.538
30.72,328.353,9.923,99.527
30.91,330.254,9.922,99.517
31.1,332.154,9.921,99.505
31.3,334.054,9.92,99.494
31.48,335.955,9.919,99.482
31.67,337.855,9.918,99.47
31.86,339.755,9.917,99.457
32.05,341.656,9.915,99.445
32.24,343.556,9.914,99.431
32.43,345.456,9.913,99.418
32.62,347.357,9.911,99.404
32.81,349.257,9.91,99.389
33,351.157,9.908,99.374
33.19,353.058,9.907,99.359
33.38,354.958,9.905,99.342
33.57,356.858,9.903,99.325
33.76,358.759,9.902,99.307
33.94,360.659,9.9,99.289
34.14,362.559,9.898,99.27
34.33,364.46,9.896,99.25
34.52,366.36,9.894,99.23
34.71,368.26,9.892,99.209
34.9,370.161,9.89,99.188
35.09,372.061,9.888,99.167
35.28,373.961,9.885,99.145
35.47,375.862,9.883,99.124
35.66,377.762,9.881,99.1
35.85,379.662,9.878,99.076
36.04,381.563,9.876,99.051
36.23,383.463,9.873,99.025
36.43,385.363,9.871,98.998
36.62,387.264,9.868,98.971
36.81,389.164,9.865,98.943
36.99,391.064,9.862,98.914
37.18,392.965,9.859,98.885
37.37,394.865,9.856,98.854
37.56,396.765,9.853,98.823
37.75,398.666,9.85,98.79
37.94,400.566,9.846,98.755
38.13,402.467,9.843,98.72
38.31,404.367,9.839,98.684
38.51,406.267,9.836,98.645
38.69,408.168,9.831,98.604
38.89,410.068,9.827,98.56
39.08,411.968,9.823,98.514
39.27,413.869,9.818,98.466
39.46,415.769,9.813,98.415
39.64,417.669,9.807,98.36
39.84,419.57,9.801,98.301
40.03,421.47,9.795,98.236
40.22,423.37,9.788,98.166
40.41,425.271,9.781,98.093
40.61,427.171,9.773,98.016
40.79,429.071,9.765,97.937
40.98,430.972,9.756,97.851
41.17,432.872,9.747,97.761
41.36,434.772,9.738,97.663
41.55,436.673,9.727,97.557
41.75,438.573,9.716,97.444
41.93,440.473,9.705,97.331
42.12,442.374,9.692,97.21
42.31,444.274,9.68,97.081
42.5,446.174,9.666,96.947
42.69,448.075,9.652,96.804
42.88,449.975,9.637,96.651
43.07,451.875,9.621,96.491
43.26,453.776,9.603,96.315
43.45,455.676,9.585,96.129
43.64,457.576,9.564,95.924
43.83,459.477,9.54,95.68
44.02,461.377,9.511,95.394
44.21,463.277,9.478,95.06
44.4,465.178,9.44,94.682
44.59,467.078,9.398,94.254
44.78,468.978,9.35,93.779
44.97,470.879,9.297,93.241
45.16,472.779,9.238,92.653
45.35,474.679,9.169,91.957
45.54,476.58,9.093,91.193
45.73,478.48,9.005,90.313
45.91,480.38,8.914,89.399
46.11,482.281,8.814,88.397
46.3,484.181,8.692,87.181
46.49,486.081,8.562,85.877
46.69,487.982,8.398,84.224
46.87,489.882,8.238,82.62
47.06,491.782,8.034,80.58
47.24,493.683,7.813,78.36
47.44,495.583,7.559,75.813
47.63,497.483,7.268,72.893
47.82,499.384,6.929,69.493
48.01,501.284,6.558,65.771
48.2,503.184,6.148,61.664
48.39,505.085,5.698,57.143
48.58,506.985,5.202,52.176
48.77,508.886,4.661,46.748
48.96,510.786,4.079,40.913
49.15,512.686,3.479,34.894
49.34,514.587,2.852,28.604
49.53,516.487,2.274,22.81
49.72,518.387,1.733,17.386
49.91,520.288,1.244,12.477
50.1,522.188,0.8470000,8.493
50.29,524.088,0.5470000,5.482
50.48,525.989,0.3510000,3.517
50.67,527.889,0.2350000,2.354
50.86,529.789,0.1780000,1.787
51.05,531.69,0.1590000,1.59
51.24,533.59,0.1470000,1.478
51.43,535.49,0.1410000,1.417
51.62,537.391,0.1390000,1.39
51.81,539.291,0.1370000,1.378
52,541.191,0.1370000,1.373
52.19,543.092,0.1370000,1.371
52.38,544.992,0.1370000,1.369
52.57,546.892,0.1360000,1.368
52.76,548.793,0.1360000,1.368
52.95,550.693,0.1360000,1.367
53.14,552.593,0.1360000,1.367
53.33,554.494,0.1360000,1.366
53.52,556.394,0.1360000,1.366
53.71,558.294,0.1360000,1.365
53.89,560.195,0.1360000,1.365
54.09,562.095,0.1360000,1.364
54.28,563.995,0.1360000,1.364
54.46,565.896,0.1360000,1.363
54.65,567.796,0.1360000,1.363
54.84,569.696,0.1360000,1.362
55.03,571.597,0.1360000,1.362
55.23,573.497,0.1360000,1.361
55.42,575.397,0.1360000,1.36
55.61,577.298,0.1360000,1.359
55.79,579.198,0.1350000,1.358
55.99,581.098,0.1350000,1.357
56.17,582.999,0.1350000,1.355
56.36,584.899,0.1350000,1.352
56.55,586.799,0.1350000,1.349
56.74,588.7,0.1340000,1.346
56.87,590,0.1340000,1.345