Folder: rHDPE_Data_Analysis/R/rHDPE_App/app/www/Output/TGA/Condensed_Data (part 25)

File: Resin23_0__1.csv
0.7500000,30,15.09,100.019,0.0100197
1.03,32.2004,15.091,100.027,0.0050649
1.28,34.4008,15.092,100.033,-0.0011392
1.53,36.6012,15.093,100.036,0.0011562
1.76,38.8016,15.093,100.04,0.0033470
2,41.002,15.094,100.043,0.0005351
2.23,43.2024,15.094,100.045,0.0021228
2.46,45.4028,15.095,100.049,0.0006225
2.69,47.6031,15.095,100.051,0.0009992
2.92,49.8035,15.096,100.055,0.0018443
3.15,52.0039,15.096,100.058,0.0006116
3.37,54.2043,15.096,100.06,0.0008892
3.6,56.4047,15.097,100.063,0.0019586
3.82,58.6051,15.097,100.066,0.0004648
4.04,60.8055,15.097,100.068,0.0011587
4.27,63.0059,15.098,100.07,0.0025424
4.49,65.2063,15.098,100.073,-0.0001846
4.71,67.4067,15.099,100.075,0.0014741
4.93,69.6071,15.099,100.077,0.0018856
5.15,71.8075,15.099,100.079,-0.0000460
5.37,74.0079,15.099,100.081,0.0005044
5.59,76.2083,15.1,100.083,0.0019262
5.81,78.4086,15.1,100.085,0.0001375
6.03,80.609,15.1,100.086,0.0003667
6.25,82.8094,15.101,100.088,0.0021538
6.47,85.0098,15.101,100.089,0.0009158
6.7,87.2102,15.101,100.09,0.0000000
6.91,89.4106,15.101,100.091,0.0014195
7.14,91.611,15.101,100.093,0.0001373
7.35,93.8114,15.101,100.094,-0.0005947
7.58,96.0118,15.102,100.095,0.0013719
7.8,98.2122,15.102,100.095,0.0005491
8.01,100.413,15.102,100.095,-0.0010530
8.24,102.613,15.102,100.096,0.0011006
8.45,104.813,15.102,100.097,0.0006415
8.68,107.014,15.102,100.096,-0.0020146
8.9,109.214,15.102,100.096,0.0006868
9.12,111.415,15.102,100.097,0.0003663
9.33,113.615,15.102,100.096,-0.0019239
9.55,115.815,15.102,100.096,0.0003664
9.78,118.016,15.102,100.096,0.0009160
10,120.216,15.102,100.096,-0.0010540
10.22,122.417,15.102,100.094,0.0003667
10.44,124.617,15.102,100.094,0.0000917
10.66,126.817,15.101,100.094,-0.0024767
10.88,129.018,15.101,100.092,0.0005508
11.1,131.218,15.101,100.092,0.0010098
11.32,133.418,15.101,100.092,-0.0013766
11.54,135.619,15.101,100.092,0.0003210
11.76,137.819,15.101,100.091,0.0009147
11.98,140.02,15.101,100.09,-0.0014596
12.2,142.22,15.1,100.087,-0.0030399
12.42,144.42,15.1,100.082,-0.0011771
12.63,146.621,15.099,100.078,-0.0023192
12.85,148.821,15.098,100.072,-0.0026085
13.07,151.022,15.098,100.069,-0.0008740
13.3,153.222,15.097,100.066,-0.0013820
13.52,155.422,15.097,100.062,-0.0020267
13.74,157.623,15.096,100.058,-0.0006897
13.96,159.823,15.096,100.055,-0.0022505
14.18,162.024,15.095,100.051,-0.0022967
14.4,164.224,15.094,100.048,-0.0004131
14.62,166.424,15.094,100.044,-0.0016499
14.84,168.625,15.093,100.04,-0.0032946
15.06,170.825,15.093,100.036,-0.0011888
15.28,173.026,15.092,100.031,-0.0032964
15.5,175.226,15.091,100.026,-0.0025225
15.72,177.426,15.09,100.021,-0.0011918
15.94,179.627,15.09,100.016,-0.0032542
16.16,181.827,15.089,100.01,-0.0024283
16.38,184.028,15.088,100.004,-0.0020173
16.6,186.228,15.087,99.998,-0.0029781
16.82,188.428,15.086,99.991,-0.0035299
17.04,190.629,15.085,99.984,-0.0027039
17.26,192.829,15.084,99.978,-0.0030684
17.48,195.029,15.083,99.97,-0.0044913
17.7,197.23,15.082,99.962,-0.0022910
17.92,199.43,15.081,99.956,-0.0034381
18.14,201.631,15.079,99.947,-0.0042186
18.36,203.831,15.078,99.939,-0.0027027
18.58,206.031,15.077,99.932,-0.0037122
18.81,208.232,15.076,99.923,-0.0052656
19.03,210.432,15.074,99.914,-0.0033443
19.24,212.633,15.073,99.906,-0.0038021
19.47,214.833,15.072,99.897,-0.0041247
19.68,217.033,15.07,99.888,-0.0028396
19.91,219.234,15.069,99.88,-0.0037570
20.13,221.434,15.068,99.87,-0.0063320
20.35,223.635,15.066,99.86,-0.0036229
20.57,225.835,15.065,99.851,-0.0044004
20.79,228.035,15.063,99.842,-0.0053162
21.01,230.236,15.062,99.832,-0.0031608
21.23,232.436,15.061,99.823,-0.0038028
21.45,234.637,15.059,99.813,-0.0056350
21.67,236.837,15.058,99.804,-0.0042136
21.89,239.037,15.056,99.794,-0.0027930
22.11,241.238,15.055,99.785,-0.0060009
22.33,243.438,15.053,99.775,-0.0039890
22.55,245.639,15.052,99.765,-0.0032539
22.77,247.839,15.05,99.756,-0.0052231
22.99,250.039,15.049,99.746,-0.0044443
23.21,252.24,15.048,99.737,-0.0036640
23.43,254.44,15.046,99.727,-0.0049442
23.65,256.64,15.045,99.717,-0.0048966
23.87,258.841,15.043,99.707,-0.0033425
24.09,261.041,15.042,99.697,-0.0051787
24.31,263.242,15.04,99.687,-0.0041705
24.53,265.442,15.039,99.678,-0.0031610
24.75,267.642,15.037,99.668,-0.0059086
24.97,269.843,15.036,99.657,-0.0042582
25.19,272.043,15.034,99.648,-0.0032985
25.41,274.244,15.033,99.638,-0.0048103
25.63,276.444,15.031,99.628,-0.0048570
25.85,278.644,15.03,99.618,-0.0036644
26.07,280.845,15.028,99.608,-0.0051740
26.29,283.045,15.027,99.597,-0.0060440
26.51,285.246,15.025,99.587,-0.0036192
26.73,287.446,15.024,99.577,-0.0056298
26.95,289.646,15.022,99.567,-0.0060900
27.17,291.847,15.02,99.556,-0.0041683
27.39,294.047,15.019,99.546,-0.0049496
27.61,296.248,15.017,99.535,-0.0051806
27.83,298.448,15.016,99.524,-0.0033870
28.05,300.648,15.014,99.514,-0.0052169
28.27,302.849,15.012,99.503,-0.0059492
28.49,305.049,15.011,99.491,-0.0046211
28.71,307.25,15.009,99.48,-0.0049908
28.93,309.45,15.007,99.468,-0.0070054
29.15,311.65,15.005,99.457,-0.0048993
29.37,313.851,15.004,99.445,-0.0060976
29.59,316.051,15.002,99.432,-0.0062328
29.81,318.251,15,99.42,-0.0043498
30.03,320.452,14.998,99.408,-0.0052637
30.25,322.652,14.996,99.395,-0.0067766
30.47,324.853,14.994,99.383,-0.0051769
30.69,327.053,14.992,99.37,-0.0063645
30.91,329.253,14.99,99.356,-0.0075050
31.13,331.454,14.988,99.343,-0.0049424
31.35,333.654,14.986,99.329,-0.0074176
31.57,335.855,14.984,99.315,-0.0071861
31.79,338.055,14.982,99.301,-0.0050366
32.02,340.255,14.98,99.287,-0.0078324
32.23,342.456,14.978,99.273,-0.0067271
32.46,344.656,14.975,99.258,-0.0053114
32.68,346.857,14.973,99.243,-0.0075979
32.89,349.057,14.971,99.228,-0.0075550
33.12,351.257,14.968,99.212,-0.0059982
33.33,353.458,14.966,99.196,-0.0090659
33.56,355.658,14.963,99.179,-0.0086538
33.78,357.859,14.961,99.163,-0.0065476
33.99,360.059,14.958,99.146,-0.0090201
34.21,362.259,14.956,99.128,-0.0085165
34.44,364.46,14.953,99.11,-0.0071403
34.66,366.66,14.95,99.091,-0.0102471
34.88,368.861,14.947,99.072,-0.0091541
35.09,371.061,14.944,99.052,-0.0080586
35.31,373.261,14.941,99.032,-0.0099324
35.54,375.462,14.938,99.01,-0.0100220
35.76,377.662,14.935,98.989,-0.0092949
35.98,379.862,14.931,98.966,-0.0118633
36.19,382.063,14.928,98.942,-0.0108059
36.42,384.263,14.924,98.917,-0.0111203
36.64,386.464,14.92,98.891,-0.0140948
36.86,388.664,14.916,98.863,-0.0133168
37.08,390.864,14.911,98.833,-0.0134615
37.29,393.065,14.907,98.802,-0.0148352
37.51,395.265,14.901,98.767,-0.0163342
37.74,397.466,14.896,98.731,-0.0168406
37.96,399.666,14.89,98.69,-0.0212337
38.18,401.866,14.883,98.645,-0.0206960
38.39,404.067,14.876,98.596,-0.0223901
38.61,406.267,14.867,98.542,-0.0276557
38.84,408.468,14.859,98.484,-0.0264652
39.06,410.668,14.849,98.423,-0.0291049
39.28,412.868,14.839,98.356,-0.0320841
39.49,415.069,14.828,98.281,-0.0360801
39.71,417.269,14.815,98.195,-0.0419561
39.94,419.47,14.8,98.097,-0.0474406
40.16,421.67,14.783,97.984,-0.0559982
40.38,423.87,14.763,97.848,-0.0675366
40.59,426.071,14.737,97.68,-0.0882755
40.81,428.271,14.704,97.458,-0.1235350
41.04,430.472,14.658,97.156,-0.1496890
41.26,432.672,14.607,96.814,-0.1626370
41.48,434.872,14.549,96.43,-0.1949320
41.69,437.073,14.474,95.935,-0.2545710
41.91,439.273,14.379,95.304,-0.3362620
42.14,441.473,14.244,94.412,-0.4413520
42.36,443.674,14.08,93.322,-0.5463830
42.58,445.874,13.876,91.973,-0.7205450
42.79,448.075,13.626,90.315,-0.7691740
43.01,450.275,13.351,88.49,-0.7639060
43.24,452.475,13.035,86.396,-1.09241
43.46,454.676,12.646,83.817,-1.28718
43.68,456.876,12.185,80.76,-1.48223
43.9,459.077,11.653,77.24,-1.7652
44.12,461.277,11.032,73.124,-2.02372
44.34,463.477,10.318,68.392,-2.29217
44.56,465.678,9.509,63.023,-2.57785
44.78,467.878,8.616,57.107,-2.78505
45,470.079,7.643,50.657,-3.09729
45.21,472.279,6.616,43.85,-3.15697
45.44,474.479,5.545,36.75,-3.23897
45.66,476.68,4.478,29.679,-3.17206
45.88,478.88,3.46,22.931,-2.92353
46.09,481.081,2.543,16.853,-2.55082
46.31,483.281,1.77,11.732,-2.00471
46.53,485.481,1.188,7.873,-1.46509
46.75,487.682,0.7870000,5.218,-0.9557600
46.97,489.882,0.5440000,3.605,-0.5554930
47.19,492.083,0.4190000,2.775,-0.2421440
47.41,494.283,0.3690000,2.444,-0.0740242
47.63,496.483,0.3530000,2.338,-0.0402988
47.86,498.684,0.3430000,2.273,-0.0199155
48.08,500.884,0.3380000,2.243,-0.0084432
48.29,503.084,0.3370000,2.231,-0.0034759
48.51,505.285,0.3360000,2.226,-0.0014097
48.74,507.485,0.3360000,2.224,-0.0001200
48.95,509.686,0.3350000,2.223,-0.0001945
49.17,511.886,0.3350000,2.222,0.0002158
49.39,514.086,0.3350000,2.221,-0.0002587
49.61,516.287,0.3350000,2.221,-0.0003717
49.83,518.487,0.3350000,2.22,-0.0003314
50.05,520.688,0.3350000,2.22,-0.0002944
50.27,522.888,0.3350000,2.219,-0.0003402
50.49,525.088,0.3350000,2.218,-0.0004315
50.71,527.289,0.3350000,2.217,-0.0004670
50.93,529.489,0.3340000,2.216,-0.0007455
51.15,531.69,0.3340000,2.214,-0.0008307
51.37,533.89,0.3340000,2.212,-0.0007616
51.59,536.09,0.3330000,2.21,-0.0010177
51.81,538.291,0.3330000,2.208,-0.0006725
52.03,540.491,0.3330000,2.206,-0.0009748
52.25,542.692,0.3330000,2.204,-0.0009558
52.47,544.892,0.3320000,2.203,-0.0007150
52.69,547.092,0.3320000,2.201,-0.0009601
52.91,549.293,0.3320000,2.199,-0.0005646
53.13,551.493,0.3320000,2.198,-0.0007118
53.35,553.694,0.3310000,2.196,-0.0009369
53.57,555.894,0.3310000,2.194,-0.0002057
53.79,558.094,0.3310000,2.193,-0.0008355
54.01,560.295,0.3310000,2.191,-0.0010326
54.23,562.495,0.3300000,2.189,-0.0005488
54.45,564.695,0.3300000,2.188,-0.0008951
54.67,566.896,0.3300000,2.186,-0.0012348
54.89,569.096,0.3290000,2.183,-0.0011275
55.11,571.297,0.3290000,2.181,-0.0009119
55.33,573.497,0.3290000,2.179,-0.0009666
55.55,575.697,0.3280000,2.176,-0.0012726
55.77,577.898,0.3280000,2.173,-0.0016113
55.99,580.098,0.3270000,2.169,-0.0021311
56.21,582.299,0.3270000,2.164,-0.0024439
56.43,584.499,0.3260000,2.159,-0.0025828
56.65,586.699,0.3250000,2.153,-0.0030241
56.87,588.9,0.3240000,2.147,-0.0031093
56.98,590,0.3230000,2.143,-0.0035605

File: Resin23_1_.csv
0.8800000,30,13.048,100.036,0.0089804
1.15,32.2004,13.049,100.044,0.0067295
1.4,34.4008,13.049,100.049,0.0007638
1.64,36.6012,13.05,100.053,0.0039692
1.88,38.8016,13.05,100.056,0.0016115
2.11,41.002,13.051,100.06,0.0014508
2.34,43.2024,13.051,100.063,0.0017771
2.57,45.4028,13.052,100.067,0.0021508
2.8,47.6031,13.052,100.07,0.0010934
3.03,49.8035,13.053,100.073,0.0017493
3.25,52.0039,13.053,100.076,0.0012708
3.48,54.2043,13.053,100.079,0.0018751
3.7,56.4047,13.054,100.082,0.0010278
3.93,58.6051,13.054,100.085,0.0011633
4.15,60.8055,13.055,100.088,0.0012983
4.37,63.0059,13.055,100.091,0.0010636
4.6,65.2063,13.055,100.093,0.0011992
4.82,67.4067,13.056,100.096,0.0014736
5.04,69.6071,13.056,100.098,0.0011494
5.26,71.8075,13.056,100.1,0.0011465
5.48,74.0079,13.056,100.102,0.0005507
5.7,76.2083,13.057,100.104,0.0009635
5.92,78.4086,13.057,100.106,0.0008249
6.14,80.609,13.057,100.107,0.0008241
6.36,82.8094,13.057,100.108,0.0012347
6.58,85.0098,13.057,100.11,0.0008255
6.8,87.2102,13.058,100.111,0.0005963
7.02,89.4106,13.058,100.113,0.0004120
7.24,91.611,13.058,100.114,0.0005488
7.46,93.8114,13.058,100.114,0.0005937
7.68,96.0118,13.058,100.115,0.0006423
7.9,98.2122,13.058,100.116,0.0003667
8.12,100.413,13.058,100.116,0.0000916
8.34,102.613,13.058,100.117,0.0000000
8.56,104.813,13.058,100.117,0.0001374
8.78,107.014,13.058,100.116,0.0000917
9,109.214,13.058,100.116,-0.0000458
9.22,111.415,13.058,100.116,-0.0005031
9.44,113.615,13.058,100.116,-0.0003213
9.66,115.815,13.058,100.115,-0.0001374
9.88,118.016,13.058,100.115,0.0001831
10.1,120.216,13.058,100.114,-0.0000919
10.32,122.417,13.058,100.114,-0.0000459
10.54,124.617,13.058,100.114,0.0000458
10.76,126.817,13.058,100.113,-0.0002292
10.98,129.018,13.058,100.113,0.0001375
11.2,131.218,13.058,100.113,-0.0002748
11.43,133.418,13.058,100.113,0.0000457
11.65,135.619,13.058,100.112,-0.0011874
11.86,137.819,13.057,100.109,-0.0021416
12.08,140.02,13.057,100.104,-0.0025501
12.3,142.22,13.056,100.099,-0.0024142
12.52,144.42,13.055,100.095,-0.0021984
12.74,146.621,13.055,100.09,-0.0018820
12.96,148.821,13.054,100.087,-0.0018769
13.18,151.022,13.054,100.083,-0.0014237
13.4,153.222,13.053,100.079,-0.0012412
13.62,155.422,13.053,100.076,-0.0012856
13.85,157.623,13.053,100.073,-0.0017411
14.07,159.823,13.052,100.069,-0.0015565
14.28,162.024,13.052,100.065,-0.0020623
14.51,164.224,13.051,100.061,-0.0021564
14.73,166.424,13.05,100.056,-0.0019178
14.95,168.625,13.05,100.051,-0.0018336
15.17,170.825,13.049,100.046,-0.0022004
15.39,173.026,13.048,100.041,-0.0027930
15.61,175.226,13.048,100.035,-0.0029366
15.83,177.426,13.047,100.03,-0.0026159
16.05,179.627,13.046,100.024,-0.0027428
16.27,181.827,13.045,100.018,-0.0030676
16.49,184.028,13.044,100.011,-0.0030159
16.71,186.228,13.044,100.004,-0.0029877
16.93,188.428,13.043,99.997,-0.0035279
17.15,190.629,13.042,99.99,-0.0032037
17.37,192.829,13.041,99.983,-0.0038567
17.59,195.029,13.04,99.975,-0.0037529
17.81,197.23,13.039,99.967,-0.0042590
18.03,199.43,13.038,99.959,-0.0036570
18.25,201.631,13.037,99.951,-0.0032976
18.47,203.831,13.036,99.942,-0.0041693
18.69,206.031,13.034,99.934,-0.0038444
18.91,208.232,13.033,99.925,-0.0043008
19.13,210.432,13.032,99.916,-0.0043646
19.35,212.633,13.031,99.907,-0.0046712
19.57,214.833,13.03,99.898,-0.0042973
19.79,217.033,13.029,99.889,-0.0048042
20.01,219.234,13.027,99.88,-0.0042621
20.23,221.434,13.026,99.87,-0.0043068
20.45,223.635,13.025,99.861,-0.0045787
20.67,225.835,13.024,99.851,-0.0047097
20.89,228.035,13.022,99.842,-0.0047226
21.11,230.236,13.021,99.832,-0.0045842
21.33,232.436,13.02,99.822,-0.0054804
21.55,234.637,13.019,99.813,-0.0042569
21.77,236.837,13.017,99.804,-0.0033768
21.99,239.037,13.016,99.795,-0.0047352
22.22,241.238,13.015,99.785,-0.0046682
22.43,243.438,13.014,99.775,-0.0043328
22.66,245.639,13.012,99.765,-0.0042614
22.88,247.839,13.011,99.756,-0.0040732
23.09,250.039,13.01,99.746,-0.0046648
23.32,252.24,13.009,99.736,-0.0044134
23.54,254.44,13.007,99.725,-0.0042680
23.76,256.64,13.006,99.715,-0.0045346
23.98,258.841,13.005,99.705,-0.0039436
24.2,261.041,13.003,99.695,-0.0045830
24.42,263.242,13.002,99.685,-0.0044430
24.64,265.442,13.001,99.675,-0.0049478
24.86,267.642,12.999,99.665,-0.0044431
25.08,269.843,12.998,99.655,-0.0049935
25.3,272.043,12.997,99.644,-0.0048974
25.52,274.244,12.995,99.634,-0.0049639
25.74,276.444,12.994,99.623,-0.0050534
25.96,278.644,12.993,99.613,-0.0046806
26.18,280.845,12.991,99.602,-0.0046177
26.4,283.045,12.99,99.592,-0.0052694
26.62,285.246,12.988,99.581,-0.0048606
26.84,287.446,12.987,99.57,-0.0048077
27.06,289.646,12.985,99.558,-0.0045788
27.28,291.847,12.984,99.547,-0.0056704
27.5,294.047,12.982,99.535,-0.0051254
27.72,296.248,12.981,99.524,-0.0054995
27.94,298.448,12.979,99.512,-0.0050348
28.16,300.648,12.978,99.5,-0.0054418
28.38,302.849,12.976,99.488,-0.0053211
28.6,305.049,12.975,99.476,-0.0054537
28.82,307.25,12.973,99.464,-0.0054517
29.04,309.45,12.971,99.451,-0.0060440
29.26,311.65,12.97,99.438,-0.0053551
29.48,313.851,12.968,99.425,-0.0057692
29.7,316.051,12.966,99.412,-0.0057692
29.92,318.251,12.965,99.399,-0.0058640
30.14,320.452,12.963,99.385,-0.0064173
30.36,322.652,12.961,99.372,-0.0063245
30.58,324.853,12.959,99.358,-0.0068607
30.8,327.053,12.958,99.344,-0.0062729
31.02,329.253,12.956,99.33,-0.0063165
31.24,331.454,12.954,99.316,-0.0067766
31.46,333.654,12.952,99.301,-0.0066887
31.68,335.855,12.95,99.286,-0.0066307
31.9,338.055,12.948,99.271,-0.0066392
32.12,340.255,12.946,99.256,-0.0070539
32.34,342.456,12.944,99.24,-0.0071454
32.56,344.656,12.942,99.224,-0.0074593
32.78,346.857,12.94,99.208,-0.0079212
33,349.057,12.938,99.191,-0.0075591
33.22,351.257,12.935,99.175,-0.0076881
33.44,353.458,12.933,99.158,-0.0071886
33.66,355.658,12.931,99.14,-0.0078755
33.88,357.859,12.929,99.122,-0.0079286
34.1,360.059,12.926,99.104,-0.0087454
34.32,362.259,12.924,99.086,-0.0087406
34.54,364.46,12.921,99.067,-0.0086806
34.76,366.66,12.919,99.047,-0.0088289
34.98,368.861,12.916,99.027,-0.0095413
35.2,371.061,12.913,99.006,-0.0096612
35.42,373.261,12.911,98.984,-0.0101685
35.64,375.462,12.908,98.962,-0.0107084
35.86,377.662,12.905,98.938,-0.0108457
36.08,379.862,12.901,98.914,-0.0113969
36.3,382.063,12.898,98.888,-0.0124840
36.52,384.263,12.894,98.861,-0.0128252
36.74,386.464,12.891,98.832,-0.0134084
36.96,388.664,12.887,98.801,-0.0145147
37.18,390.864,12.882,98.768,-0.0157509
37.4,393.065,12.878,98.732,-0.0170694
37.62,395.265,12.873,98.694,-0.0181319
37.84,397.466,12.867,98.652,-0.0197911
38.06,399.666,12.861,98.605,-0.0217371
38.28,401.866,12.855,98.554,-0.0243500
38.5,404.067,12.847,98.498,-0.0267857
38.72,406.267,12.839,98.437,-0.0290591
38.94,408.468,12.83,98.37,-0.0316733
39.16,410.668,12.821,98.299,-0.0331259
39.38,412.868,12.811,98.22,-0.0374520
39.6,415.069,12.799,98.132,-0.0425677
39.82,417.269,12.786,98.031,-0.0508287
40.04,419.47,12.771,97.911,-0.0580513
40.26,421.67,12.753,97.775,-0.0681985
40.48,423.87,12.73,97.604,-0.0925824
40.7,426.071,12.698,97.353,-0.1323120
40.92,428.271,12.657,97.04,-0.1508600
41.14,430.472,12.611,96.685,-0.1884830
41.36,432.672,12.549,96.211,-0.2603200
41.58,434.872,12.477,95.664,-0.2409440
41.8,437.073,12.386,94.959,-0.3964840
42.02,439.273,12.258,93.98,-0.5091240
42.24,441.473,12.097,92.747,-0.6140300
42.46,443.674,11.911,91.324,-0.6769850
42.68,445.874,11.707,89.755,-0.7303300
42.9,448.075,11.452,87.805,-1.00142
43.12,450.275,11.129,85.328,-1.22238
43.34,452.475,10.753,82.444,-1.45772
43.56,454.676,10.31,79.045,-1.69411
43.79,456.876,9.781,74.988,-1.7948
44.01,459.077,9.171,70.313,-2.19576
44.23,461.277,8.473,64.958,-2.51452
44.44,463.477,7.694,58.992,-2.86905
44.66,465.678,6.833,52.389,-3.13921
44.89,467.878,5.916,45.355,-3.24596
45.11,470.079,4.958,38.011,-3.36048
45.32,472.279,4.005,30.708,-3.28629
45.54,474.479,3.085,23.649,-3.09472
45.76,476.68,2.254,17.281,-2.73069
45.98,478.88,1.551,11.889,-2.12619
46.2,481.081,1.026,7.869,-1.48368
46.42,483.281,0.6730000,5.161,-0.9605920
46.64,485.481,0.4650000,3.564,-0.4918350
46.86,487.682,0.3630000,2.785,-0.2217860
47.08,489.882,0.3260000,2.497,-0.0613767
47.3,492.083,0.3110000,2.386,-0.0419237
47.53,494.283,0.3020000,2.319,-0.0208084
47.74,496.483,0.2990000,2.29,-0.0081253
47.96,498.684,0.2970000,2.278,-0.0029723
48.18,500.884,0.2960000,2.273,-0.0012684
48.4,503.084,0.2960000,2.27,-0.0005396
48.62,505.285,0.2960000,2.269,-0.0001975
48.84,507.485,0.2960000,2.268,-0.0001205
49.06,509.686,0.2960000,2.267,-0.0004031
49.28,511.886,0.2960000,2.266,-0.0001658
49.5,514.086,0.2950000,2.265,-0.0002557
49.72,516.287,0.2950000,2.265,-0.0001530
49.94,518.487,0.2950000,2.264,-0.0007756
50.16,520.688,0.2950000,2.262,-0.0011826
50.38,522.888,0.2950000,2.261,-0.0006603
50.6,525.088,0.2950000,2.259,-0.0010498
50.82,527.289,0.2940000,2.257,-0.0010126
51.04,529.489,0.2940000,2.255,-0.0012778
51.26,531.69,0.2940000,2.252,-0.0012183
51.48,533.89,0.2930000,2.25,-0.0006588
51.7,536.09,0.2930000,2.248,-0.0010592
51.92,538.291,0.2930000,2.246,-0.0015215
52.14,540.491,0.2930000,2.243,-0.0012377
52.36,542.692,0.2920000,2.241,-0.0008189
52.58,544.892,0.2920000,2.239,-0.0009612
52.8,547.092,0.2920000,2.237,-0.0009340
53.02,549.293,0.2910000,2.235,-0.0004474
53.24,551.493,0.2910000,2.233,-0.0010066
53.46,553.694,0.2910000,2.23,-0.0009887
53.68,555.894,0.2910000,2.227,-0.0013407
53.9,558.094,0.2900000,2.225,-0.0012606
54.12,560.295,0.2900000,2.222,-0.0013096
54.34,562.495,0.2890000,2.219,-0.0015267
54.56,564.695,0.2890000,2.216,-0.0015181
54.78,566.896,0.2890000,2.212,-0.0021177
55,569.096,0.2880000,2.208,-0.0017042
55.22,571.297,0.2870000,2.204,-0.0022678
55.44,573.497,0.2870000,2.199,-0.0027630
55.66,575.697,0.2860000,2.193,-0.0029368
55.88,577.898,0.2850000,2.186,-0.0034054
56.1,580.098,0.2840000,2.178,-0.0039134
56.32,582.299,0.2830000,2.169,-0.0044450
56.54,584.499,0.2820000,2.159,-0.0042864
56.76,586.699,0.2800000,2.148,-0.0053990
56.98,588.9,0.2790000,2.136,-0.0063983
57.09,590,0.2780000,2.129,-0.0059994