Folder: rHDPE_Data_Analysis/R/rHDPE_App/app/www/Output/TGA/Condensed_Data (part 14)

File: Resin12_0_.csv
0.9100000,30,16.176,100.031,0.0036951
1.18,32.3004,16.177,100.038,0.0009979
1.44,34.6008,16.178,100.042,0.0014133
1.69,36.9012,16.178,100.045,0.0017271
1.93,39.2016,16.179,100.047,0.0001946
2.18,41.5021,16.179,100.05,-0.0001448
2.42,43.8025,16.179,100.052,0.0015841
2.66,46.1029,16.18,100.055,0.0013340
2.9,48.4033,16.18,100.057,0.0019406
3.14,50.7037,16.181,100.06,0.0012708
3.37,53.0041,16.181,100.062,0.0014989
3.61,55.3045,16.182,100.065,0.0008399
3.84,57.6049,16.182,100.068,0.0015341
4.08,59.9053,16.182,100.07,0.0010653
4.31,62.2058,16.183,100.072,-0.0002773
4.54,64.5062,16.183,100.074,0.0005073
4.77,66.8066,16.183,100.076,0.0009672
5,69.107,16.184,100.078,0.0006897
5.23,71.4074,16.184,100.08,0.0003671
5.46,73.7078,16.184,100.082,0.0008712
5.69,76.0082,16.185,100.084,0.0004126
5.92,78.3086,16.185,100.085,0.0006868
6.15,80.609,16.185,100.087,0.0010081
6.38,82.9094,16.185,100.088,0.0004116
6.61,85.2099,16.185,100.089,0.0009610
6.85,87.5103,16.186,100.091,0.0007777
7.08,89.8107,16.186,100.092,0.0008693
7.3,92.1111,16.186,100.093,0.0005943
7.53,94.4115,16.186,100.094,0.0005949
7.76,96.7119,16.186,100.095,0.0001828
7.99,99.0123,16.186,100.095,0.0000915
8.22,101.313,16.187,100.096,0.0005953
8.45,103.613,16.187,100.097,0.0002748
8.68,105.914,16.187,100.097,0.0001373
8.91,108.214,16.187,100.098,-0.0004120
9.14,110.514,16.187,100.098,0.0000000
9.37,112.815,16.187,100.098,-0.0000458
9.6,115.115,16.187,100.099,0.0002746
9.83,117.416,16.187,100.099,0.0004126
10.06,119.716,16.187,100.099,0.0000916
10.3,122.016,16.187,100.099,0.0001829
10.53,124.317,16.187,100.1,-0.0004123
10.75,126.617,16.187,100.1,0.0003668
10.98,128.918,16.187,100.1,0.0000916
11.22,131.218,16.187,100.101,0.0001375
11.45,133.518,16.188,100.102,0.0002748
11.68,135.819,16.188,100.103,0.0000000
11.91,138.119,16.188,100.103,0.0000000
12.14,140.42,16.188,100.103,-0.0001827
12.37,142.72,16.187,100.102,-0.0005938
12.6,145.021,16.187,100.099,-0.0014594
12.83,147.321,16.186,100.095,-0.0016844
13.05,149.621,16.186,100.091,-0.0014596
13.28,151.922,16.185,100.088,-0.0011940
13.52,154.222,16.185,100.086,-0.0006906
13.75,156.523,16.185,100.084,-0.0007813
13.98,158.823,16.184,100.082,-0.0008720
14.21,161.123,16.184,100.081,-0.0012357
14.44,163.424,16.184,100.079,-0.0010573
14.67,165.724,16.183,100.076,-0.0007802
14.9,168.025,16.183,100.074,-0.0008672
15.13,170.325,16.183,100.072,-0.0013799
15.36,172.625,16.182,100.069,-0.0005989
15.59,174.926,16.182,100.067,-0.0011842
15.82,177.226,16.181,100.064,-0.0011447
16.05,179.527,16.181,100.061,-0.0010120
16.28,181.827,16.18,100.058,-0.0010954
16.51,184.128,16.18,100.055,-0.0011925
16.74,186.428,16.179,100.052,-0.0017800
16.97,188.728,16.179,100.048,-0.0011418
17.2,191.029,16.178,100.045,-0.0017926
17.43,193.329,16.178,100.041,-0.0012799
17.66,195.63,16.177,100.038,-0.0019131
17.89,197.93,16.176,100.034,-0.0012389
18.12,200.23,16.176,100.03,-0.0017447
18.35,202.531,16.175,100.026,-0.0024821
18.58,204.831,16.175,100.021,-0.0019647
18.81,207.132,16.174,100.017,-0.0020676
19.04,209.432,16.173,100.013,-0.0019240
19.27,211.732,16.172,100.008,-0.0021504
19.5,214.033,16.172,100.003,-0.0017808
19.73,216.333,16.171,99.999,-0.0022181
19.96,218.634,16.17,99.994,-0.0020543
20.19,220.934,16.169,99.989,-0.0022005
20.42,223.235,16.168,99.983,-0.0021958
20.65,225.535,16.167,99.978,-0.0023394
20.88,227.835,16.167,99.973,-0.0022008
21.12,230.136,16.166,99.967,-0.0022894
21.34,232.436,16.165,99.962,-0.0026058
21.58,234.737,16.164,99.956,-0.0024725
21.81,237.037,16.163,99.95,-0.0022900
22.03,239.337,16.162,99.944,-0.0027948
22.27,241.638,16.161,99.938,-0.0026405
22.49,243.938,16.16,99.932,-0.0026183
22.73,246.239,16.159,99.926,-0.0030734
22.96,248.539,16.158,99.92,-0.0028873
23.19,250.839,16.157,99.913,-0.0026187
23.42,253.14,16.156,99.906,-0.0028793
23.65,255.44,16.155,99.9,-0.0029754
23.88,257.741,16.154,99.893,-0.0028879
24.11,260.041,16.153,99.886,-0.0030236
24.34,262.341,16.151,99.879,-0.0030705
24.57,264.642,16.15,99.872,-0.0030164
24.8,266.942,16.149,99.864,-0.0031651
25.03,269.243,16.148,99.857,-0.0032051
25.26,271.543,16.147,99.849,-0.0035695
25.49,273.844,16.145,99.841,-0.0038518
25.72,276.144,16.144,99.834,-0.0036155
25.95,278.444,16.143,99.825,-0.0038970
26.18,280.745,16.141,99.817,-0.0041628
26.41,283.045,16.14,99.809,-0.0037899
26.64,285.346,16.139,99.801,-0.0040404
26.87,287.646,16.137,99.792,-0.0038532
27.1,289.946,16.136,99.783,-0.0038483
27.33,292.247,16.134,99.774,-0.0038863
27.56,294.547,16.133,99.765,-0.0040241
27.79,296.848,16.131,99.755,-0.0041683
28.02,299.148,16.13,99.746,-0.0041187
28.25,301.448,16.128,99.736,-0.0043545
28.48,303.749,16.127,99.726,-0.0047161
28.71,306.049,16.125,99.716,-0.0041613
28.94,308.35,16.124,99.706,-0.0045704
29.17,310.65,16.122,99.696,-0.0048642
29.4,312.951,16.12,99.685,-0.0045354
29.63,315.251,16.118,99.674,-0.0045304
29.86,317.551,16.117,99.663,-0.0048535
30.09,319.852,16.115,99.652,-0.0049038
30.32,322.152,16.113,99.641,-0.0046729
30.55,324.453,16.111,99.629,-0.0045247
30.78,326.753,16.109,99.618,-0.0052198
31.01,329.053,16.107,99.606,-0.0055086
31.24,331.354,16.105,99.594,-0.0050935
31.47,333.654,16.103,99.581,-0.0056319
31.7,335.955,16.101,99.569,-0.0051301
31.93,338.255,16.099,99.556,-0.0059982
32.16,340.555,16.097,99.543,-0.0058181
32.39,342.856,16.095,99.53,-0.0054059
32.62,345.156,16.093,99.516,-0.0060864
32.85,347.457,16.091,99.502,-0.0059274
33.08,349.757,16.088,99.489,-0.0062123
33.31,352.058,16.086,99.474,-0.0064162
33.54,354.358,16.084,99.46,-0.0064501
33.77,356.658,16.081,99.445,-0.0064256
34,358.959,16.079,99.429,-0.0068311
34.23,361.259,16.076,99.413,-0.0070971
34.46,363.56,16.073,99.397,-0.0071138
34.69,365.86,16.071,99.38,-0.0074415
34.92,368.16,16.068,99.362,-0.0080896
35.15,370.461,16.065,99.343,-0.0081502
35.38,372.761,16.062,99.324,-0.0087912
35.61,375.062,16.058,99.303,-0.0090993
35.84,377.362,16.055,99.281,-0.0099579
36.07,379.662,16.051,99.258,-0.0104358
36.3,381.963,16.047,99.233,-0.0113761
36.53,384.263,16.043,99.206,-0.0119048
36.76,386.564,16.038,99.177,-0.0131989
36.99,388.864,16.033,99.145,-0.0150769
37.22,391.164,16.027,99.111,-0.0151876
37.45,393.465,16.021,99.073,-0.0166972
37.68,395.765,16.015,99.032,-0.0188084
37.91,398.066,16.007,98.988,-0.0202654
38.14,400.366,16,98.939,-0.0216636
38.37,402.667,15.991,98.885,-0.0250550
38.6,404.967,15.981,98.826,-0.0277013
38.83,407.267,15.97,98.759,-0.0307805
39.06,409.568,15.958,98.685,-0.0336380
39.29,411.868,15.945,98.603,-0.0375916
39.52,414.169,15.93,98.511,-0.0429317
39.75,416.469,15.913,98.406,-0.0485553
39.98,418.769,15.894,98.287,-0.0558447
40.21,421.07,15.872,98.148,-0.0643302
40.44,423.37,15.843,97.97,-0.0911585
40.67,425.671,15.805,97.738,-0.1115900
40.9,427.971,15.76,97.457,-0.1338390
41.13,430.271,15.706,97.124,-0.1662700
41.36,432.572,15.642,96.729,-0.1824180
41.59,434.872,15.565,96.253,-0.2368170
41.82,437.173,15.472,95.678,-0.2783920
42.05,439.473,15.36,94.987,-0.3547380
42.28,441.774,15.233,94.201,-0.3906590
42.51,444.074,15.082,93.264,-0.4433940
42.74,446.374,14.898,92.125,-0.5667030
42.97,448.675,14.668,90.703,-0.6822870
43.2,450.975,14.384,88.952,-0.9182040
43.43,453.276,14.041,86.827,-1.07898
43.66,455.576,13.616,84.199,-1.25206
43.89,457.876,13.099,81.001,-1.49955
44.13,460.177,12.482,77.189,-1.70179
44.36,462.477,11.744,72.624,-2.1055
44.59,464.778,10.881,67.288,-2.54044
44.81,467.078,9.879,61.093,-2.82039
45.04,469.378,8.735,54.014,-3.21643
45.28,471.679,7.463,46.148,-3.54707
45.51,473.979,6.098,37.706,-3.74013
45.74,476.28,4.679,28.932,-3.82201
45.96,478.58,3.284,20.307,-3.62634
46.19,480.881,2.022,12.502,-3.10214
46.42,483.181,1.015,6.274,-2.2812
46.65,485.481,0.3750000,2.316,-1.15931
46.88,487.782,0.1170000,0.7230000,-0.3040770
47.11,490.082,0.0700000,0.4340000,-0.0311584
47.34,492.383,0.0600000,0.3720000,-0.0176842
47.57,494.683,0.0560000,0.3470000,-0.0057039
47.8,496.983,0.0550000,0.3390000,-0.0020993
48.03,499.284,0.0540000,0.3360000,-0.0004468
48.26,501.584,0.0540000,0.3350000,-0.0002609
48.49,503.885,0.0540000,0.3350000,-0.0001186
48.72,506.185,0.0540000,0.3350000,0.0002715
48.95,508.485,0.0540000,0.3350000,-0.0002648
49.18,510.786,0.0540000,0.3350000,0.0004204
49.41,513.086,0.0540000,0.3350000,-0.0000291
49.64,515.387,0.0540000,0.3350000,-0.0000622
49.87,517.687,0.0540000,0.3360000,-0.0000041
50.1,519.987,0.0540000,0.3360000,-0.0003189
50.33,522.288,0.0540000,0.3360000,0.0001637
50.56,524.588,0.0540000,0.3350000,-0.0002246
50.79,526.889,0.0540000,0.3350000,-0.0000455
51.02,529.189,0.0540000,0.3350000,-0.0003165
51.25,531.49,0.0540000,0.3340000,-0.0001885
51.48,533.79,0.0540000,0.3340000,-0.0004332
51.71,536.09,0.0540000,0.3340000,-0.0001273
51.94,538.391,0.0540000,0.3330000,0.0000498
52.17,540.691,0.0540000,0.3330000,0.0000515
52.4,542.992,0.0540000,0.3330000,-0.0002366
52.63,545.292,0.0540000,0.3330000,0.0000917
52.86,547.592,0.0540000,0.3330000,-0.0001556
53.09,549.893,0.0540000,0.3330000,-0.0000118
53.32,552.193,0.0540000,0.3330000,-0.0000342
53.55,554.494,0.0540000,0.3330000,0.0001141
53.78,556.794,0.0540000,0.3320000,-0.0002947
54.01,559.094,0.0540000,0.3320000,0.0001637
54.24,561.395,0.0540000,0.3320000,-0.0003379
54.47,563.695,0.0540000,0.3310000,-0.0000609
54.7,565.996,0.0540000,0.3310000,-0.0001696
54.93,568.296,0.0530000,0.3310000,-0.0001057
55.16,570.597,0.0530000,0.3300000,-0.0002168
55.39,572.897,0.0530000,0.3300000,-0.0001728
55.62,575.197,0.0530000,0.3300000,-0.0003201
55.85,577.498,0.0530000,0.3290000,-0.0000194
56.08,579.798,0.0530000,0.3290000,-0.0003153
56.31,582.099,0.0530000,0.3280000,-0.0003259
56.54,584.399,0.0530000,0.3280000,-0.0003030
56.77,586.699,0.0530000,0.3280000,0.0000725
57,589,0.0530000,0.3280000,0.0000313
57.1,590,0.0530000,0.3280000,0.0005583

File: Resin12_1__1.csv
0.6800000,30,11.289,100.011,0.0056664
0.9700000,32.2004,11.29,100.021,0.0068416
1.23,34.4008,11.291,100.029,0.0030719
1.48,36.6012,11.292,100.035,0.0041183
1.72,38.8016,11.292,100.04,0.0037084
1.96,41.002,11.293,100.044,0.0019996
2.19,43.2024,11.293,100.049,0.0012512
2.42,45.4028,11.294,100.052,0.0007646
2.65,47.6031,11.294,100.055,0.0025688
2.88,49.8035,11.294,100.058,0.0011324
3.11,52.0039,11.295,100.062,0.0012228
3.33,54.2043,11.295,100.065,0.0014987
3.55,56.4047,11.295,100.069,0.0019106
3.78,58.6051,11.296,100.072,0.0019041
4,60.8055,11.296,100.075,0.0012500
4.22,63.0059,11.297,100.078,0.0014291
4.44,65.2063,11.297,100.081,0.0012916
4.66,67.4067,11.297,100.084,0.0015208
4.89,69.6071,11.298,100.087,0.0010576
5.11,71.8075,11.298,100.09,0.0011040
5.33,74.0079,11.298,100.093,0.0008722
5.55,76.2083,11.299,100.096,0.0012444
5.77,78.4086,11.299,100.099,0.0011986
5.99,80.609,11.299,100.101,0.0012828
6.21,82.8094,11.299,100.104,0.0008261
6.43,85.0098,11.3,100.106,0.0010056
6.65,87.2102,11.3,100.108,0.0007772
6.87,89.4106,11.3,100.11,0.0011903
7.09,91.611,11.3,100.112,0.0005499
7.31,93.8114,11.301,100.114,0.0010528
7.53,96.0118,11.301,100.116,0.0003212
7.75,98.2122,11.301,100.118,0.0010064
7.97,100.413,11.301,100.12,0.0000458
8.19,102.613,11.301,100.121,0.0005953
8.41,104.813,11.302,100.122,0.0003665
8.63,107.014,11.302,100.123,0.0011869
8.85,109.214,11.302,100.125,0.0006414
9.07,111.415,11.302,100.126,0.0012793
9.29,113.615,11.302,100.127,0.0003201
9.51,115.815,11.302,100.127,-0.0002294
9.73,118.016,11.302,100.128,0.0005483
9.95,120.216,11.302,100.128,0.0003660
10.17,122.417,11.302,100.129,0.0006860
10.39,124.617,11.302,100.129,0.0005936
10.61,126.817,11.302,100.129,-0.0000922
10.83,129.018,11.302,100.13,0.0000000
11.05,131.218,11.302,100.13,0.0000000
11.28,133.418,11.302,100.13,0.0001362
11.49,135.619,11.302,100.131,0.0005925
11.71,137.819,11.303,100.131,-0.0003658
11.93,140.02,11.302,100.131,0.0005043
12.15,142.22,11.303,100.132,0.0002751
12.38,144.42,11.303,100.132,0.0005505
12.6,146.621,11.303,100.132,0.0006400
12.81,148.821,11.303,100.133,0.0003183
13.03,151.022,11.303,100.133,-0.0001851
13.26,153.222,11.303,100.133,-0.0008272
13.48,155.422,11.303,100.131,-0.0011038
13.7,157.623,11.302,100.128,-0.0024955
13.92,159.823,11.302,100.122,-0.0024793
14.13,162.024,11.301,100.118,-0.0022744
14.35,164.224,11.301,100.113,-0.0016438
14.57,166.424,11.3,100.11,-0.0017420
14.79,168.625,11.3,100.107,-0.0011419
15.01,170.825,11.299,100.103,-0.0015996
15.24,173.026,11.299,100.1,-0.0015370
15.46,175.226,11.299,100.097,-0.0010064
15.68,177.426,11.298,100.094,-0.0010346
15.9,179.627,11.298,100.09,-0.0016656
16.12,181.827,11.298,100.087,-0.0016550
16.34,184.028,11.297,100.083,-0.0009604
16.56,186.228,11.297,100.08,-0.0024996
16.78,188.428,11.296,100.076,-0.0021582
17,190.629,11.296,100.071,-0.0023882
17.22,192.829,11.295,100.067,-0.0021117
17.44,195.029,11.295,100.062,-0.0016983
17.66,197.23,11.294,100.058,-0.0020240
17.88,199.43,11.294,100.054,-0.0022529
18.11,201.631,11.293,100.049,-0.0019231
18.33,203.831,11.293,100.044,-0.0024157
18.54,206.031,11.292,100.04,-0.0024004
18.76,208.232,11.292,100.035,-0.0019675
18.98,210.432,11.291,100.03,-0.0017278
19.21,212.633,11.291,100.025,-0.0023191
19.43,214.833,11.29,100.02,-0.0017184
19.64,217.033,11.289,100.015,-0.0020847
19.87,219.234,11.289,100.009,-0.0020261
20.09,221.434,11.288,100.004,-0.0025851
20.31,223.635,11.288,99.998,-0.0021214
20.53,225.835,11.287,99.994,-0.0028352
20.75,228.035,11.286,99.988,-0.0031299
20.97,230.236,11.286,99.982,-0.0027506
21.19,232.436,11.285,99.976,-0.0029043
21.41,234.637,11.284,99.971,-0.0026733
21.63,236.837,11.284,99.965,-0.0028965
21.85,239.037,11.283,99.959,-0.0027504
22.07,241.238,11.282,99.953,-0.0028842
22.29,243.438,11.282,99.947,-0.0029393
22.51,245.639,11.281,99.94,-0.0028873
22.73,247.839,11.28,99.934,-0.0030864
22.94,250.039,11.28,99.928,-0.0028991
23.16,252.24,11.279,99.922,-0.0028513
23.38,254.44,11.278,99.915,-0.0026522
23.6,256.64,11.277,99.909,-0.0031669
23.82,258.841,11.277,99.902,-0.0031797
24.04,261.041,11.276,99.896,-0.0030881
24.27,263.242,11.275,99.889,-0.0029506
24.49,265.442,11.275,99.883,-0.0031894
24.71,267.642,11.274,99.876,-0.0032610
24.93,269.843,11.273,99.87,-0.0025276
25.15,272.043,11.272,99.863,-0.0034128
25.37,274.244,11.271,99.856,-0.0032381
25.59,276.444,11.271,99.849,-0.0028352
25.81,278.644,11.27,99.842,-0.0031381
26.03,280.845,11.269,99.835,-0.0026738
26.24,283.045,11.268,99.828,-0.0033345
26.46,285.246,11.267,99.82,-0.0033771
26.68,287.446,11.267,99.813,-0.0036953
26.9,289.646,11.266,99.805,-0.0032329
27.12,291.847,11.265,99.797,-0.0033922
27.34,294.047,11.264,99.789,-0.0037086
27.56,296.248,11.263,99.782,-0.0033947
27.78,298.448,11.262,99.773,-0.0039402
28,300.648,11.261,99.765,-0.0033985
28.22,302.849,11.26,99.757,-0.0041461
28.44,305.049,11.259,99.749,-0.0040413
28.66,307.25,11.258,99.74,-0.0037957
28.89,309.45,11.257,99.731,-0.0036098
29.11,311.65,11.256,99.723,-0.0039790
29.33,313.851,11.255,99.715,-0.0035464
29.55,316.051,11.254,99.706,-0.0043395
29.77,318.251,11.253,99.697,-0.0043957
29.99,320.452,11.252,99.688,-0.0044311
30.22,322.652,11.251,99.679,-0.0041451
30.44,324.853,11.25,99.669,-0.0044513
30.66,327.053,11.249,99.66,-0.0042310
30.87,329.253,11.248,99.65,-0.0045620
31.09,331.454,11.247,99.641,-0.0046211
31.32,333.654,11.246,99.631,-0.0045255
31.54,335.855,11.245,99.621,-0.0043104
31.75,338.055,11.244,99.611,-0.0048298
31.97,340.255,11.243,99.601,-0.0046262
32.19,342.456,11.241,99.59,-0.0047530
32.42,344.656,11.24,99.58,-0.0049348
32.63,346.857,11.239,99.569,-0.0047030
32.85,349.057,11.238,99.559,-0.0052388
33.07,351.257,11.237,99.548,-0.0050416
33.29,353.458,11.235,99.536,-0.0045993
33.51,355.658,11.234,99.525,-0.0047981
33.73,357.859,11.233,99.514,-0.0053704
33.96,360.059,11.232,99.502,-0.0055985
34.18,362.259,11.23,99.49,-0.0051988
34.39,364.46,11.229,99.479,-0.0049269
34.61,366.66,11.228,99.467,-0.0047809
34.84,368.861,11.226,99.456,-0.0052149
35.05,371.061,11.225,99.444,-0.0051961
35.27,373.261,11.224,99.432,-0.0056860
35.49,375.462,11.222,99.42,-0.0054612
35.71,377.662,11.221,99.407,-0.0059290
35.93,379.862,11.219,99.394,-0.0061774
36.15,382.063,11.218,99.382,-0.0059654
36.37,384.263,11.216,99.369,-0.0054225
36.59,386.464,11.215,99.356,-0.0063044
36.81,388.664,11.213,99.342,-0.0064138
37.03,390.864,11.212,99.328,-0.0059922
37.25,393.065,11.21,99.315,-0.0061808
37.47,395.265,11.209,99.301,-0.0058633
37.69,397.466,11.207,99.288,-0.0058652
37.92,399.666,11.206,99.273,-0.0063251
38.13,401.866,11.204,99.259,-0.0065574
38.35,404.067,11.202,99.244,-0.0066558
38.57,406.267,11.201,99.228,-0.0075164
38.79,408.468,11.199,99.211,-0.0075926
39.01,410.668,11.197,99.192,-0.0090984
39.23,412.868,11.194,99.172,-0.0095978
39.46,415.069,11.192,99.15,-0.0103256
39.67,417.269,11.189,99.126,-0.0111927
39.89,419.47,11.186,99.1,-0.0131410
40.11,421.67,11.183,99.072,-0.0134045
40.33,423.87,11.179,99.04,-0.0145479
40.54,426.071,11.176,99.006,-0.0168875
40.76,428.271,11.171,98.968,-0.0178085
40.98,430.472,11.167,98.927,-0.0192413
41.2,432.672,11.162,98.883,-0.0213742
41.42,434.872,11.156,98.834,-0.0230154
41.64,437.073,11.15,98.781,-0.0255215
41.87,439.273,11.143,98.721,-0.0283563
42.09,441.473,11.136,98.657,-0.0308613
42.31,443.674,11.128,98.584,-0.0351182
42.53,445.874,11.119,98.503,-0.0394138
42.75,448.075,11.108,98.411,-0.0449262
42.98,450.275,11.097,98.307,-0.0496957
43.2,452.475,11.083,98.189,-0.0595144
43.45,454.676,11.066,98.038,-0.0657890
43.67,456.876,11.05,97.89,-0.0694254
43.87,459.077,11.031,97.729,-0.0794198
44.08,461.277,11.01,97.539,-0.0944356
44.3,463.477,10.982,97.289,-0.1190390
44.51,465.678,10.94,96.923,-0.1823100
44.73,467.878,10.894,96.51,-0.1965640
44.94,470.079,10.847,96.1,-0.1827060
45.15,472.279,10.793,95.62,-0.2635840
45.37,474.479,10.727,95.035,-0.2764730
45.59,476.68,10.649,94.34,-0.3529720
45.81,478.88,10.556,93.513,-0.4141780
46.04,481.081,10.446,92.546,-0.4906250
46.26,483.281,10.315,91.38,-0.5964550
46.48,485.481,10.152,89.943,-0.6910070
46.71,487.682,9.953,88.175,-0.9035110
46.93,489.882,9.715,86.067,-0.9548130
47.15,492.083,9.445,83.677,-1.21814
47.37,494.283,9.125,80.839,-1.41575
47.59,496.483,8.722,77.271,-1.89155
47.82,498.684,8.307,73.597,-1.85305
48.04,500.884,7.825,69.323,-2.1017
48.26,503.084,7.276,64.456,-2.50419
48.49,505.285,6.6,58.471,-2.46349
48.69,507.485,5.95,52.714,-2.89206
48.92,509.686,5.149,45.614,-3.38496
49.13,511.886,4.311,38.195,-3.6527
49.35,514.086,3.369,29.848,-3.56424
49.59,516.287,2.428,21.514,-3.63496
49.79,518.487,1.646,14.58,-2.93053
50.01,520.688,0.9450000,8.368,-2.62981
50.24,522.888,0.4010000,3.55,-1.49086
50.45,525.088,0.1480000,1.313,-0.6339290
50.68,527.289,0.0640000,0.5710000,-0.1296070
50.89,529.489,0.0490000,0.4340000,-0.0438626
51.11,531.69,0.0410000,0.3680000,-0.0181869
51.33,533.89,0.0390000,0.3430000,-0.0060007
51.55,536.09,0.0380000,0.3350000,-0.0023974
51.78,538.291,0.0370000,0.3310000,-0.0007128
51.99,540.491,0.0370000,0.3310000,-0.0003865
52.21,542.692,0.0370000,0.3300000,-0.0001531
52.43,544.892,0.0370000,0.3300000,0.0000847
52.65,547.092,0.0370000,0.3300000,0.0006229
52.87,549.293,0.0370000,0.3300000,-0.0000324
53.09,551.493,0.0370000,0.3300000,-0.0000998
53.31,553.694,0.0370000,0.3300000,0.0000566
53.53,555.894,0.0370000,0.3300000,-0.0006718
53.75,558.094,0.0370000,0.3310000,-0.0005628
53.97,560.295,0.0370000,0.3310000,0.0001737
54.19,562.495,0.0370000,0.3310000,-0.0001331
54.41,564.695,0.0370000,0.3310000,-0.0004985
54.63,566.896,0.0370000,0.3310000,0.0001788
54.85,569.096,0.0370000,0.3310000,0.0007216
55.07,571.297,0.0370000,0.3310000,-0.0002421
55.29,573.497,0.0370000,0.3310000,-0.0001372
55.51,575.697,0.0370000,0.3310000,-0.0002823
55.73,577.898,0.0370000,0.3310000,0.0001383
55.95,580.098,0.0370000,0.3310000,0.0001434
56.16,582.299,0.0370000,0.3300000,-0.0001380
56.38,584.499,0.0370000,0.3300000,0.0002592
56.6,586.699,0.0370000,0.3300000,0.0002078
56.82,588.9,0.0370000,0.3300000,0.0000327
56.93,590,0.0370000,0.3300000,-0.0004203