Folder: rHDPE_Data_Analysis/R/rHDPE_App/app/www/Output/TGA/Condensed_Data (part 9)

File: Resin7_0__1.csv
0.6500000,30,14.796,100.015,0.0076978
0.9600000,32.3004,14.797,100.024,0.0018889
1.23,34.6008,14.798,100.027,0.0011967
1.49,36.9012,14.798,100.03,0.0011581
1.74,39.2016,14.798,100.032,0.0006412
1.98,41.5021,14.798,100.033,0.0006333
2.23,43.8025,14.799,100.035,0.0009195
2.47,46.1029,14.799,100.036,0.0004806
2.71,48.4033,14.799,100.037,-0.0002383
2.95,50.7037,14.799,100.036,-0.0004260
3.19,53.0041,14.799,100.034,-0.0008003
3.42,55.3045,14.798,100.031,-0.0014517
3.66,57.6049,14.798,100.028,-0.0013986
3.89,59.9053,14.797,100.025,-0.0012074
4.13,62.2058,14.797,100.024,0.0000000
4.36,64.5062,14.797,100.024,0.0000462
4.59,66.8066,14.797,100.025,0.0005988
4.82,69.107,14.797,100.027,0.0008301
5.05,71.4074,14.798,100.028,0.0005530
5.28,73.7078,14.798,100.029,-0.0001378
5.51,76.0082,14.798,100.03,0.0003662
5.74,78.3086,14.798,100.03,0.0004574
5.97,80.609,14.798,100.031,-0.0000457
6.2,82.9094,14.798,100.031,0.0000918
6.43,85.2099,14.798,100.031,0.0001373
6.66,87.5103,14.798,100.032,0.0000914
6.9,89.8107,14.798,100.032,0.0002287
7.12,92.1111,14.798,100.032,0.0000457
7.35,94.4115,14.798,100.032,0.0002288
7.58,96.7119,14.798,100.032,0.0004121
7.81,99.0123,14.798,100.033,-0.0003203
8.04,101.313,14.798,100.032,-0.0001830
8.27,103.613,14.798,100.032,-0.0002745
8.5,105.914,14.798,100.031,-0.0002748
8.73,108.214,14.798,100.031,-0.0004578
8.96,110.514,14.798,100.031,-0.0002289
9.19,112.815,14.798,100.03,-0.0005034
9.42,115.115,14.798,100.029,-0.0000915
9.65,117.416,14.798,100.028,-0.0003205
9.88,119.716,14.798,100.028,0.0001376
10.11,122.016,14.797,100.027,0.0000000
10.34,124.317,14.797,100.027,-0.0005496
10.58,126.617,14.797,100.026,-0.0002296
10.8,128.918,14.797,100.026,0.0000459
11.03,131.218,14.797,100.026,-0.0001375
11.27,133.518,14.797,100.026,0.0000000
11.5,135.819,14.797,100.025,-0.0008237
11.73,138.119,14.797,100.023,-0.0015515
11.95,140.42,14.796,100.018,-0.0025925
12.18,142.72,14.795,100.011,-0.0027280
12.41,145.021,14.794,100.006,-0.0024217
12.64,147.321,14.794,100.001,-0.0017457
12.87,149.621,14.793,99.997,-0.0019712
13.1,151.922,14.792,99.993,-0.0024417
13.34,154.222,14.792,99.988,-0.0027665
13.57,156.523,14.791,99.982,-0.0017838
13.8,158.823,14.79,99.978,-0.0024212
14.03,161.123,14.789,99.973,-0.0021918
14.26,163.424,14.789,99.967,-0.0020147
14.49,165.724,14.788,99.962,-0.0021095
14.72,168.025,14.787,99.956,-0.0026589
14.95,170.325,14.786,99.951,-0.0028396
15.18,172.625,14.785,99.945,-0.0027101
15.41,174.926,14.784,99.938,-0.0025596
15.64,177.226,14.783,99.932,-0.0028907
15.87,179.527,14.782,99.925,-0.0032539
16.1,181.827,14.781,99.918,-0.0033456
16.33,184.128,14.78,99.91,-0.0034846
16.56,186.428,14.779,99.902,-0.0032515
16.79,188.728,14.778,99.894,-0.0030692
17.02,191.029,14.777,99.886,-0.0033431
17.25,193.329,14.775,99.878,-0.0034429
17.48,195.63,14.774,99.87,-0.0039450
17.71,197.93,14.773,99.861,-0.0039377
17.94,200.23,14.772,99.852,-0.0038039
18.17,202.531,14.77,99.844,-0.0037986
18.4,204.831,14.769,99.835,-0.0035672
18.63,207.132,14.768,99.825,-0.0042241
18.86,209.432,14.766,99.816,-0.0039388
19.09,211.732,14.765,99.807,-0.0039755
19.32,214.033,14.763,99.797,-0.0043159
19.55,216.333,14.762,99.787,-0.0044901
19.78,218.634,14.761,99.778,-0.0039846
20.01,220.934,14.759,99.768,-0.0039810
20.24,223.235,14.758,99.758,-0.0043104
20.47,225.535,14.756,99.749,-0.0043498
20.7,227.835,14.755,99.738,-0.0042653
20.93,230.136,14.753,99.728,-0.0042252
21.16,232.436,14.752,99.719,-0.0046224
21.39,234.737,14.75,99.709,-0.0042567
21.62,237.037,14.749,99.699,-0.0044040
21.86,239.337,14.747,99.688,-0.0043040
22.08,241.638,14.746,99.678,-0.0043104
22.32,243.938,14.744,99.668,-0.0043510
22.54,246.239,14.743,99.658,-0.0042190
22.78,248.539,14.741,99.648,-0.0044434
23.01,250.839,14.74,99.638,-0.0043972
23.23,253.14,14.738,99.627,-0.0043514
23.47,255.44,14.737,99.617,-0.0045351
23.7,257.741,14.735,99.607,-0.0045838
23.93,260.041,14.734,99.596,-0.0046737
24.16,262.341,14.732,99.585,-0.0045788
24.39,264.642,14.73,99.574,-0.0047222
24.62,266.942,14.729,99.563,-0.0047178
24.85,269.243,14.727,99.552,-0.0050394
25.08,271.543,14.726,99.541,-0.0048993
25.31,273.844,14.724,99.53,-0.0047936
25.54,276.144,14.722,99.519,-0.0050871
25.77,278.444,14.721,99.507,-0.0053162
26,280.745,14.719,99.496,-0.0052627
26.23,283.045,14.717,99.484,-0.0050843
26.46,285.346,14.715,99.472,-0.0059120
26.69,287.646,14.714,99.461,-0.0051674
26.92,289.946,14.712,99.449,-0.0052294
27.15,292.247,14.71,99.437,-0.0050366
27.38,294.547,14.708,99.425,-0.0048051
27.61,296.848,14.707,99.413,-0.0055535
27.84,299.148,14.705,99.401,-0.0051693
28.07,301.448,14.703,99.389,-0.0048077
28.3,303.749,14.701,99.377,-0.0052733
28.53,306.049,14.699,99.365,-0.0057318
28.76,308.35,14.698,99.353,-0.0049835
28.99,310.65,14.696,99.34,-0.0050853
29.22,312.951,14.694,99.329,-0.0047989
29.45,315.251,14.692,99.317,-0.0058705
29.68,317.551,14.691,99.305,-0.0052226
29.91,319.852,14.689,99.292,-0.0049478
30.14,322.152,14.687,99.28,-0.0049835
30.37,324.453,14.685,99.268,-0.0052684
30.6,326.753,14.683,99.255,-0.0051376
30.83,329.053,14.681,99.243,-0.0053601
31.06,331.354,14.68,99.23,-0.0052704
31.29,333.654,14.678,99.217,-0.0049100
31.52,335.955,14.676,99.204,-0.0054865
31.75,338.255,14.674,99.191,-0.0057640
31.98,340.555,14.672,99.179,-0.0058023
32.21,342.856,14.67,99.165,-0.0058823
32.44,345.156,14.668,99.152,-0.0064935
32.67,347.457,14.666,99.138,-0.0049360
32.9,349.757,14.664,99.125,-0.0066367
33.13,352.058,14.662,99.11,-0.0066320
33.36,354.358,14.66,99.096,-0.0064959
33.59,356.658,14.657,99.08,-0.0075120
33.82,358.959,14.655,99.064,-0.0075356
34.05,361.259,14.652,99.047,-0.0078268
34.28,363.56,14.65,99.028,-0.0085509
34.51,365.86,14.647,99.009,-0.0090609
34.74,368.16,14.644,98.988,-0.0095749
34.97,370.461,14.64,98.965,-0.0097635
35.2,372.761,14.637,98.94,-0.0108259
35.43,375.062,14.633,98.914,-0.0119897
35.66,377.362,14.628,98.885,-0.0127911
35.89,379.662,14.624,98.853,-0.0145073
36.12,381.963,14.619,98.818,-0.0163073
36.35,384.263,14.613,98.778,-0.0182320
36.58,386.564,14.606,98.734,-0.0202196
36.81,388.864,14.599,98.684,-0.0235590
37.04,391.164,14.59,98.626,-0.0265366
37.27,393.465,14.58,98.56,-0.0303961
37.5,395.765,14.57,98.488,-0.0329393
37.73,398.066,14.558,98.409,-0.0358646
37.96,400.366,14.545,98.323,-0.0387395
38.19,402.667,14.531,98.229,-0.0428480
38.42,404.967,14.516,98.125,-0.0473877
38.65,407.267,14.499,98.01,-0.0528440
38.88,409.568,14.48,97.881,-0.0591997
39.11,411.868,14.459,97.737,-0.0673587
39.34,414.169,14.434,97.571,-0.0804861
39.57,416.469,14.402,97.356,-0.1091690
39.8,418.769,14.364,97.097,-0.1211860
40.03,421.07,14.32,96.802,-0.1404600
40.26,423.37,14.269,96.458,-0.1637980
40.49,425.671,14.21,96.054,-0.1985340
40.72,427.971,14.139,95.573,-0.2184240
40.95,430.271,14.057,95.019,-0.2526070
41.18,432.572,13.962,94.382,-0.2969750
41.41,434.872,13.85,93.621,-0.3607960
41.64,437.173,13.719,92.734,-0.4384370
41.87,439.473,13.549,91.589,-0.5345240
42.1,441.774,13.326,90.08,-0.7021500
42.33,444.074,13.067,88.331,-0.8451830
42.56,446.374,12.762,86.27,-0.9928040
42.79,448.675,12.396,83.796,-1.20929
43.02,450.975,11.961,80.853,-1.42378
43.25,453.276,11.444,77.357,-1.5404
43.48,455.576,10.84,73.274,-1.87713
43.71,457.876,10.125,68.445,-2.26014
43.94,460.177,9.297,62.845,-2.56559
44.18,462.477,8.341,56.385,-3.02436
44.41,464.778,7.259,49.066,-3.41282
44.64,467.078,6.053,40.915,-3.64672
44.86,469.378,4.768,32.228,-3.88839
45.09,471.679,3.469,23.448,-3.68902
45.32,473.979,2.289,15.472,-3.36727
45.55,476.28,1.302,8.801,-2.41758
45.78,478.58,0.5840000,3.946,-1.61676
46.01,480.881,0.1960000,1.322,-0.6910650
46.24,483.181,0.0570000,0.3870000,-0.1739230
46.47,485.481,0.0330000,0.2260000,-0.0340238
46.7,487.782,0.0250000,0.1720000,-0.0144849
46.93,490.082,0.0220000,0.1510000,-0.0048047
47.16,492.383,0.0210000,0.1440000,-0.0021450
47.39,494.683,0.0210000,0.1410000,-0.0011924
47.62,496.983,0.0210000,0.1390000,-0.0007196
47.85,499.284,0.0200000,0.1370000,-0.0007369
48.08,501.584,0.0200000,0.1350000,-0.0005794
48.31,503.885,0.0200000,0.1340000,-0.0002002
48.54,506.185,0.0200000,0.1330000,-0.0009213
48.77,508.485,0.0190000,0.1310000,-0.0009106
49,510.786,0.0190000,0.1290000,-0.0010455
49.23,513.086,0.0190000,0.1270000,-0.0008885
49.46,515.387,0.0190000,0.1260000,-0.0007911
49.69,517.687,0.0180000,0.1240000,-0.0005064
49.92,519.987,0.0180000,0.1220000,-0.0006523
50.15,522.288,0.0180000,0.1200000,-0.0006886
50.38,524.588,0.0170000,0.1180000,-0.0011634
50.61,526.889,0.0170000,0.1160000,-0.0012363
50.84,529.189,0.0170000,0.1140000,-0.0008454
51.07,531.49,0.0170000,0.1120000,-0.0008658
51.3,533.79,0.0160000,0.1100000,-0.0009426
51.53,536.09,0.0160000,0.1090000,-0.0007183
51.76,538.391,0.0160000,0.1070000,-0.0008017
51.99,540.691,0.0160000,0.1060000,-0.0007606
52.22,542.992,0.0150000,0.1040000,-0.0000040
52.45,545.292,0.0150000,0.1020000,-0.0007482
52.68,547.592,0.0150000,0.1000000,-0.0007191
52.91,549.893,0.0150000,0.0990000,-0.0008415
53.14,552.193,0.0140000,0.0970000,-0.0004451
53.37,554.494,0.0140000,0.0960000,-0.0007980
53.6,556.794,0.0140000,0.0940000,-0.0008071
53.83,559.094,0.0140000,0.0920000,-0.0008201
54.06,561.395,0.0130000,0.0910000,-0.0005506
54.29,563.695,0.0130000,0.0900000,-0.0006636
54.52,565.996,0.0130000,0.0890000,-0.0008050
54.75,568.296,0.0130000,0.0870000,-0.0007854
54.98,570.597,0.0130000,0.0860000,-0.0004761
55.21,572.897,0.0130000,0.0850000,-0.0006074
55.44,575.197,0.0120000,0.0830000,-0.0006580
55.67,577.498,0.0120000,0.0810000,-0.0006187
55.9,579.798,0.0120000,0.0800000,-0.0008753
56.13,582.099,0.0120000,0.0790000,-0.0003210
56.36,584.399,0.0110000,0.0770000,-0.0002453
56.59,586.699,0.0110000,0.0750000,-0.0008045
56.82,589,0.0110000,0.0740000,-0.0009099
56.92,590,0.0110000,0.0730000,-0.0006178

File: Resin7_1_.csv
1.05,30,12.234,100.035,0.0082308
1.31,32.2004,12.235,100.042,0.0048175
1.56,34.4008,12.235,100.047,0.0036575
1.79,36.6012,12.236,100.051,0.0014688
2.03,38.8016,12.236,100.055,0.0009204
2.26,41.002,12.237,100.057,0.0009108
2.49,43.2024,12.237,100.06,0.0016183
2.72,45.4028,12.237,100.063,0.0010399
2.94,47.6031,12.238,100.066,0.0013160
3.17,49.8035,12.238,100.068,0.0012676
3.39,52.0039,12.238,100.071,0.0007924
3.62,54.2043,12.239,100.074,0.0012994
3.84,56.4047,12.239,100.077,0.0008819
4.06,58.6051,12.239,100.079,0.0012492
4.29,60.8055,12.24,100.082,0.0006928
4.51,63.0059,12.24,100.084,0.0011065
4.73,65.2063,12.24,100.086,0.0006902
4.95,67.4067,12.24,100.088,0.0010156
5.17,69.6071,12.241,100.091,0.0009208
5.39,71.8075,12.241,100.093,0.0011505
5.61,74.0079,12.241,100.095,0.0005970
5.84,76.2083,12.241,100.097,0.0008715
6.05,78.4086,12.242,100.099,0.0004123
6.28,80.609,12.242,100.101,0.0005960
6.5,82.8094,12.242,100.102,0.0005505
6.72,85.0098,12.242,100.104,0.0009156
6.94,87.2102,12.242,100.105,0.0010538
7.16,89.4106,12.243,100.107,0.0011919
7.38,91.611,12.243,100.109,0.0004589
7.6,93.8114,12.243,100.109,0.0003187
7.82,96.0118,12.243,100.11,0.0005940
8.04,98.2122,12.243,100.111,0.0002289
8.26,100.413,12.243,100.111,0.0004127
8.48,102.613,12.243,100.112,0.0004595
8.7,104.813,12.243,100.113,0.0001852
8.92,107.014,12.243,100.114,0.0006840
9.14,109.214,12.244,100.114,0.0004096
9.36,111.415,12.244,100.115,0.0002282
9.58,113.615,12.244,100.114,-0.0001829
9.8,115.815,12.244,100.114,-0.0003198
10.02,118.016,12.244,100.114,-0.0001372
10.24,120.216,12.243,100.114,-0.0008712
10.46,122.417,12.243,100.113,0.0000912
10.68,124.617,12.243,100.113,0.0002292
10.9,126.817,12.243,100.112,-0.0005028
11.12,129.018,12.243,100.111,-0.0006406
11.34,131.218,12.243,100.111,-0.0006427
11.56,133.418,12.243,100.11,-0.0003680
11.78,135.619,12.243,100.109,-0.0006394
12,137.819,12.243,100.108,-0.0002327
12.22,140.02,12.243,100.107,-0.0004109
12.44,142.22,12.242,100.106,-0.0001830
12.66,144.42,12.242,100.105,-0.0004057
12.88,146.621,12.242,100.103,-0.0009128
13.1,148.821,12.242,100.102,-0.0004599
13.32,151.022,12.242,100.1,-0.0010065
13.54,153.222,12.241,100.096,-0.0024157
13.76,155.422,12.24,100.089,-0.0029515
13.98,157.623,12.24,100.083,-0.0027570
14.2,159.823,12.239,100.078,-0.0018868
14.42,162.024,12.239,100.074,-0.0010138
14.64,164.224,12.238,100.071,-0.0011478
14.86,166.424,12.238,100.069,-0.0009687
15.07,168.625,12.238,100.067,-0.0009909
15.3,170.825,12.237,100.065,-0.0010220
15.52,173.026,12.237,100.063,-0.0010698
15.74,175.226,12.237,100.061,-0.0006395
15.96,177.426,12.237,100.06,-0.0004159
16.18,179.627,12.237,100.058,-0.0002358
16.4,181.827,12.236,100.056,-0.0013148
16.62,184.028,12.236,100.054,-0.0006434
16.84,186.228,12.236,100.052,-0.0010122
17.06,188.428,12.236,100.05,-0.0008798
17.28,190.629,12.235,100.048,-0.0008092
17.51,192.829,12.235,100.046,-0.0012457
17.73,195.029,12.235,100.044,-0.0013300
17.95,197.23,12.235,100.041,-0.0016494
18.17,199.43,12.234,100.039,-0.0011583
18.39,201.631,12.234,100.036,-0.0009816
18.61,203.831,12.234,100.034,-0.0014760
18.83,206.031,12.233,100.031,-0.0013379
19.04,208.232,12.233,100.028,-0.0017471
19.27,210.432,12.233,100.024,-0.0016496
19.49,212.633,12.232,100.021,-0.0013643
19.71,214.833,12.232,100.018,-0.0012471
19.93,217.033,12.231,100.015,-0.0019774
20.15,219.234,12.231,100.012,-0.0020276
20.37,221.434,12.231,100.009,-0.0015332
20.59,223.635,12.23,100.005,-0.0016174
20.81,225.835,12.23,100.002,-0.0015259
21.03,228.035,12.229,99.998,-0.0012423
21.25,230.236,12.229,99.995,-0.0018894
21.47,232.436,12.228,99.991,-0.0015233
21.69,234.637,12.228,99.987,-0.0016211
21.92,236.837,12.227,99.983,-0.0019742
22.14,239.037,12.227,99.979,-0.0016990
22.36,241.238,12.226,99.975,-0.0018608
22.57,243.438,12.226,99.971,-0.0018787
22.79,245.639,12.225,99.967,-0.0020150
23.01,247.839,12.225,99.963,-0.0018741
23.23,250.039,12.224,99.958,-0.0015924
23.45,252.24,12.224,99.954,-0.0021779
23.67,254.44,12.223,99.95,-0.0022957
23.89,256.64,12.223,99.945,-0.0016465
24.11,258.841,12.222,99.941,-0.0022313
24.33,261.041,12.222,99.936,-0.0018711
24.55,263.242,12.221,99.931,-0.0022906
24.77,265.442,12.221,99.926,-0.0017338
25,267.642,12.22,99.922,-0.0020642
25.22,269.843,12.219,99.917,-0.0022401
25.43,272.043,12.219,99.912,-0.0025263
25.65,274.244,12.218,99.907,-0.0023874
25.87,276.444,12.218,99.902,-0.0019751
26.08,278.644,12.217,99.898,-0.0023521
26.31,280.845,12.216,99.893,-0.0023041
26.53,283.045,12.216,99.887,-0.0026763
26.75,285.246,12.215,99.882,-0.0020492
26.97,287.446,12.215,99.877,-0.0022542
27.19,289.646,12.214,99.872,-0.0025698
27.41,291.847,12.213,99.867,-0.0022873
27.63,294.047,12.213,99.862,-0.0022906
27.86,296.248,12.212,99.856,-0.0025806
28.07,298.448,12.211,99.851,-0.0022627
28.29,300.648,12.211,99.845,-0.0022283
28.51,302.849,12.21,99.839,-0.0028167
28.73,305.049,12.209,99.833,-0.0026553
28.95,307.25,12.208,99.827,-0.0030203
29.17,309.45,12.208,99.821,-0.0027576
29.39,311.65,12.207,99.815,-0.0031423
29.61,313.851,12.206,99.809,-0.0031886
29.84,316.051,12.205,99.802,-0.0029375
30.05,318.251,12.205,99.796,-0.0032757
30.27,320.452,12.204,99.789,-0.0033883
30.49,322.652,12.203,99.782,-0.0033488
30.71,324.853,12.202,99.776,-0.0030478
30.93,327.053,12.201,99.769,-0.0037767
31.15,329.253,12.2,99.761,-0.0029719
31.37,331.454,12.199,99.754,-0.0030426
31.59,333.654,12.199,99.746,-0.0034639
31.82,335.855,12.198,99.738,-0.0033672
32.04,338.055,12.197,99.73,-0.0034592
32.26,340.255,12.196,99.723,-0.0033655
32.48,342.456,12.195,99.715,-0.0037083
32.71,344.656,12.194,99.706,-0.0046825
32.94,346.857,12.192,99.697,-0.0037384
33.15,349.057,12.191,99.688,-0.0036486
33.36,351.257,12.19,99.679,-0.0043852
33.58,353.458,12.189,99.669,-0.0040724
33.8,355.658,12.188,99.659,-0.0045993
34.02,357.859,12.187,99.648,-0.0048472
34.24,360.059,12.185,99.637,-0.0049629
34.46,362.259,12.184,99.626,-0.0049188
34.68,364.46,12.182,99.614,-0.0052723
34.9,366.66,12.181,99.603,-0.0055231
35.12,368.861,12.179,99.59,-0.0057109
35.34,371.061,12.178,99.577,-0.0056808
35.56,373.261,12.176,99.564,-0.0063563
35.78,375.462,12.174,99.549,-0.0067642
36,377.662,12.173,99.534,-0.0072878
36.22,379.862,12.171,99.519,-0.0073718
36.44,382.063,12.169,99.502,-0.0077132
36.66,384.263,12.167,99.485,-0.0084916
36.88,386.464,12.164,99.466,-0.0089842
37.09,388.664,12.162,99.447,-0.0090302
37.31,390.864,12.159,99.426,-0.0095469
37.54,393.065,12.157,99.404,-0.0107834
37.76,395.265,12.154,99.38,-0.0106940
37.98,397.466,12.151,99.356,-0.0111222
38.19,399.666,12.148,99.331,-0.0115951
38.41,401.866,12.145,99.305,-0.0115636
38.63,404.067,12.141,99.279,-0.0129763
38.86,406.267,12.138,99.25,-0.0139535
39.08,408.468,12.134,99.219,-0.0138023
39.29,410.668,12.13,99.189,-0.0147577
39.51,412.868,12.126,99.156,-0.0161719
39.73,415.069,12.122,99.119,-0.0176946
39.95,417.269,12.117,99.08,-0.0185340
40.18,419.47,12.112,99.037,-0.0205140
40.41,421.67,12.106,98.989,-0.0203775
40.61,423.87,12.1,98.941,-0.0238011
40.83,426.071,12.093,98.886,-0.0261241
41.05,428.271,12.086,98.826,-0.0291934
41.27,430.472,12.078,98.758,-0.0325688
41.49,432.672,12.069,98.683,-0.0366483
41.71,434.872,12.058,98.599,-0.0404304
41.93,437.073,12.047,98.507,-0.0440040
42.15,439.273,12.034,98.402,-0.0507187
42.38,441.473,12.02,98.284,-0.0563251
42.59,443.674,12.004,98.154,-0.0624540
42.82,445.874,11.986,98.01,-0.0701270
43.04,448.075,11.966,97.845,-0.0791605
43.26,450.275,11.944,97.661,-0.0899595
43.48,452.475,11.916,97.432,-0.1133340
43.7,454.676,11.883,97.163,-0.1351950
43.92,456.876,11.846,96.865,-0.1451380
44.14,459.077,11.806,96.541,-0.1560130
44.36,461.277,11.763,96.186,-0.1718460
44.58,463.477,11.709,95.743,-0.1928260
44.8,465.678,11.657,95.318,-0.1850620
45.02,467.878,11.604,94.885,-0.2115630
45.24,470.079,11.548,94.427,-0.2184010
45.46,472.279,11.495,93.994,-0.1856930
45.69,474.479,11.436,93.515,-0.2631270
45.9,476.68,11.361,92.9,-0.2981620
46.12,478.88,11.267,92.132,-0.3998100
46.34,481.081,11.164,91.283,-0.4156380
46.56,483.281,11.034,90.227,-0.5214680
46.78,485.481,10.882,88.982,-0.6022170
47,487.682,10.695,87.455,-0.8144710
47.21,489.882,10.468,85.597,-0.8766970
47.43,492.083,10.205,83.448,-1.08409
47.65,494.283,9.886,80.835,-1.24577
47.87,496.483,9.519,77.834,-1.51036
48.09,498.684,9.094,74.358,-1.85106
48.31,500.884,8.578,70.142,-1.95215
48.53,503.084,7.972,65.19,-2.41331
48.75,505.285,7.297,59.667,-2.79467
48.97,507.485,6.528,53.376,-3.11996
49.19,509.686,5.683,46.466,-3.12117
49.4,511.886,4.778,39.067,-3.49844
49.62,514.086,3.839,31.39,-3.43117
49.85,516.287,2.885,23.591,-3.77575
50.07,518.487,1.989,16.261,-3.01456
50.29,520.688,1.241,10.148,-2.40314
50.51,522.888,0.6750000,5.522,-1.72387
50.73,525.088,0.3160000,2.581,-0.9024760
50.95,527.289,0.1610000,1.314,-0.3005230
51.17,529.489,0.1190000,0.9720000,-0.0478931
51.39,531.69,0.1070000,0.8750000,-0.0322329
51.61,533.89,0.1010000,0.8280000,-0.0130928
51.84,536.09,0.0990000,0.8110000,-0.0046787
52.06,538.291,0.0980000,0.8050000,-0.0017830
52.28,540.491,0.0980000,0.8030000,-0.0005417
52.5,542.692,0.0980000,0.8020000,-0.0004293
52.72,544.892,0.0980000,0.8020000,-0.0002139
52.94,547.092,0.0980000,0.8030000,0.0001193
53.15,549.293,0.0980000,0.8030000,-0.0001319
53.37,551.493,0.0980000,0.8030000,0.0004314
53.59,553.694,0.0980000,0.8030000,0.0001136
53.8,555.894,0.0980000,0.8030000,-0.0000087
54.02,558.094,0.0980000,0.8040000,0.0001783
54.24,560.295,0.0980000,0.8040000,0.0002625
54.46,562.495,0.0980000,0.8040000,-0.0001248
54.69,564.695,0.0980000,0.8040000,-0.0002403
54.91,566.896,0.0980000,0.8040000,0.0002291
55.13,569.096,0.0980000,0.8040000,0.0000681
55.35,571.297,0.0980000,0.8050000,0.0004643
55.57,573.497,0.0980000,0.8050000,-0.0001927
55.79,575.697,0.0980000,0.8040000,-0.0000336
56.01,577.898,0.0980000,0.8040000,-0.0006497
56.23,580.098,0.0980000,0.8040000,-0.0003607
56.45,582.299,0.0980000,0.8040000,0.0003291
56.67,584.499,0.0980000,0.8040000,0.0003287
56.89,586.699,0.0980000,0.8040000,0.0006185
57.11,588.9,0.0980000,0.8040000,-0.0002461
57.23,590,0.0980000,0.8040000,0.0001914