Folder: rHDPE_Data_Analysis/R/rHDPE_App/app/www/Output/TGA/Condensed_Data (part 21)

File: Resin19_0__1.csv
0.6400000,30,14.447,100.016,0.0008572
0.9500000,32.3004,14.448,100.028,0.0025780
1.22,34.6008,14.449,100.034,0.0026703
1.48,36.9012,14.45,100.038,0.0003032
1.73,39.2016,14.451,100.042,0.0021678
1.98,41.5021,14.451,100.046,0.0028248
2.22,43.8025,14.452,100.049,0.0016884
2.46,46.1029,14.452,100.053,0.0006701
2.7,48.4033,14.453,100.056,0.0016161
2.94,50.7037,14.453,100.06,0.0011346
3.18,53.0041,14.454,100.063,0.0011758
3.41,55.3045,14.454,100.067,0.0016386
3.64,57.6049,14.455,100.07,0.0009794
3.88,59.9053,14.455,100.073,0.0014402
4.11,62.2058,14.455,100.076,0.0012511
4.35,64.5062,14.456,100.079,0.0012014
4.58,66.8066,14.456,100.082,0.0011066
4.81,69.107,14.457,100.084,0.0017491
5.04,71.4074,14.457,100.087,0.0014246
5.27,73.7078,14.457,100.089,0.0009181
5.5,76.0082,14.458,100.092,0.0010540
5.73,78.3086,14.458,100.094,0.0007787
5.96,80.609,14.458,100.096,0.0008246
6.19,82.9094,14.459,100.098,0.0008246
6.42,85.2099,14.459,100.1,0.0008235
6.65,87.5103,14.459,100.102,0.0008237
6.88,89.8107,14.459,100.103,0.0001831
7.11,92.1111,14.46,100.105,0.0000000
7.34,94.4115,14.46,100.106,0.0009154
7.57,96.7119,14.46,100.107,0.0006409
7.8,99.0123,14.46,100.109,0.0004120
8.03,101.313,14.46,100.11,0.0005494
8.26,103.613,14.46,100.111,0.0005496
8.49,105.914,14.461,100.111,0.0001374
8.72,108.214,14.461,100.112,0.0003206
8.95,110.514,14.461,100.113,0.0000916
9.18,112.815,14.461,100.114,0.0004580
9.41,115.115,14.461,100.115,0.0003206
9.64,117.416,14.461,100.115,0.0000458
9.87,119.716,14.461,100.116,0.0005957
10.1,122.016,14.461,100.116,0.0004585
10.33,124.317,14.461,100.117,0.0003210
10.57,126.617,14.461,100.118,0.0005049
10.8,128.918,14.462,100.119,0.0004589
11.03,131.218,14.462,100.12,0.0004132
11.26,133.518,14.462,100.121,0.0003211
11.49,135.819,14.462,100.122,0.0000916
11.72,138.119,14.462,100.122,0.0000457
11.95,140.42,14.462,100.122,-0.0004110
12.18,142.72,14.462,100.121,-0.0005463
12.4,145.021,14.462,100.119,-0.0016766
12.63,147.321,14.461,100.115,-0.0018552
12.86,149.621,14.46,100.111,-0.0017316
13.09,151.922,14.46,100.108,-0.0010101
13.32,154.222,14.46,100.106,-0.0005071
13.55,156.523,14.46,100.104,-0.0001383
13.78,158.823,14.459,100.103,-0.0002762
14.02,161.123,14.459,100.102,-0.0005978
14.25,163.424,14.459,100.101,-0.0004132
14.48,165.724,14.459,100.1,-0.0007337
14.71,168.025,14.459,100.099,-0.0001834
14.94,170.325,14.459,100.098,-0.0006876
15.17,172.625,14.458,100.096,-0.0006418
15.4,174.926,14.458,100.095,-0.0006879
15.63,177.226,14.458,100.094,-0.0006414
15.86,179.527,14.458,100.093,-0.0000916
16.09,181.827,14.458,100.091,-0.0008247
16.32,184.128,14.457,100.09,-0.0006874
16.55,186.428,14.457,100.088,-0.0004122
16.78,188.728,14.457,100.087,-0.0012823
17.01,191.029,14.457,100.085,-0.0008244
17.24,193.329,14.457,100.083,-0.0006877
17.47,195.63,14.456,100.082,-0.0006875
17.7,197.93,14.456,100.08,-0.0008247
17.93,200.23,14.456,100.078,-0.0011449
18.16,202.531,14.455,100.076,-0.0006410
18.39,204.831,14.455,100.075,-0.0005952
18.62,207.132,14.455,100.073,-0.0011450
18.85,209.432,14.455,100.071,-0.0010534
19.08,211.732,14.454,100.069,-0.0008249
19.31,214.033,14.454,100.067,-0.0005955
19.54,216.333,14.454,100.065,-0.0009160
19.77,218.634,14.454,100.063,-0.0013295
20,220.934,14.453,100.061,-0.0007336
20.23,223.235,14.453,100.058,-0.0005962
20.46,225.535,14.453,100.056,-0.0011463
20.69,227.835,14.452,100.054,-0.0010541
20.93,230.136,14.452,100.052,-0.0008709
21.16,232.436,14.452,100.05,-0.0006412
21.38,234.737,14.451,100.047,-0.0010992
21.62,237.037,14.451,100.045,-0.0010078
21.84,239.337,14.451,100.042,-0.0009619
22.08,241.638,14.45,100.04,-0.0008708
22.31,243.938,14.45,100.037,-0.0007331
22.53,246.239,14.449,100.034,-0.0008699
22.77,248.539,14.449,100.031,-0.0016032
23,250.839,14.449,100.028,-0.0013287
23.23,253.14,14.448,100.025,-0.0016952
23.46,255.44,14.448,100.022,-0.0010993
23.69,257.741,14.447,100.019,-0.0009163
23.92,260.041,14.447,100.016,-0.0012829
24.15,262.341,14.446,100.012,-0.0017409
24.38,264.642,14.446,100.009,-0.0015577
24.61,266.942,14.445,100.005,-0.0016493
24.84,269.243,14.445,100.001,-0.0009613
25.07,271.543,14.444,99.997,-0.0010531
25.3,273.844,14.444,99.993,-0.0017867
25.53,276.144,14.443,99.989,-0.0017850
25.76,278.444,14.442,99.985,-0.0022436
25.99,280.745,14.442,99.981,-0.0021073
26.22,283.045,14.441,99.977,-0.0018763
26.45,285.346,14.44,99.972,-0.0018315
26.68,287.646,14.44,99.967,-0.0021990
26.91,289.946,14.439,99.963,-0.0022453
27.14,292.247,14.438,99.958,-0.0020153
27.37,294.547,14.438,99.953,-0.0022902
27.6,296.848,14.437,99.948,-0.0025183
27.83,299.148,14.436,99.942,-0.0024275
28.06,301.448,14.435,99.937,-0.0023822
28.29,303.749,14.435,99.932,-0.0028398
28.52,306.049,14.434,99.926,-0.0021074
28.75,308.35,14.433,99.92,-0.0019224
28.98,310.65,14.432,99.914,-0.0027000
29.21,312.951,14.431,99.908,-0.0030706
29.44,315.251,14.43,99.902,-0.0036200
29.67,317.551,14.429,99.895,-0.0030203
29.9,319.852,14.428,99.889,-0.0026557
30.13,322.152,14.428,99.883,-0.0029785
30.36,324.453,14.427,99.876,-0.0031152
30.59,326.753,14.426,99.87,-0.0028862
30.82,329.053,14.425,99.863,-0.0030220
31.05,331.354,14.424,99.856,-0.0027488
31.28,333.654,14.423,99.849,-0.0032497
31.51,335.955,14.422,99.842,-0.0036133
31.74,338.255,14.421,99.835,-0.0032039
31.97,340.555,14.42,99.828,-0.0032051
32.2,342.856,14.419,99.82,-0.0034812
32.43,345.156,14.417,99.813,-0.0027014
32.66,347.457,14.416,99.806,-0.0033400
32.89,349.757,14.415,99.798,-0.0034768
33.12,352.058,14.414,99.79,-0.0035714
33.35,354.358,14.413,99.782,-0.0033407
33.58,356.658,14.412,99.773,-0.0035703
33.81,358.959,14.41,99.764,-0.0044872
34.04,361.259,14.409,99.755,-0.0041667
34.27,363.56,14.408,99.745,-0.0041643
34.5,365.86,14.406,99.734,-0.0051740
34.73,368.16,14.404,99.722,-0.0051740
34.96,370.461,14.402,99.709,-0.0058639
35.19,372.761,14.4,99.696,-0.0067308
35.42,375.062,14.398,99.68,-0.0072762
35.65,377.362,14.396,99.664,-0.0072802
35.88,379.662,14.393,99.645,-0.0083838
36.11,381.963,14.39,99.625,-0.0091748
36.34,384.263,14.387,99.602,-0.0106752
36.57,386.564,14.383,99.576,-0.0123010
36.8,388.864,14.379,99.547,-0.0135631
37.03,391.164,14.374,99.514,-0.0150321
37.26,393.465,14.369,99.476,-0.0168956
37.49,395.765,14.363,99.435,-0.0190087
37.72,398.066,14.356,99.389,-0.0215778
37.95,400.366,14.349,99.336,-0.0246614
38.18,402.667,14.34,99.275,-0.0276404
38.41,404.967,14.33,99.208,-0.0312443
38.64,407.267,14.319,99.134,-0.0339432
38.87,409.568,14.308,99.052,-0.0370421
39.1,411.868,14.295,98.962,-0.0410565
39.33,414.169,14.28,98.862,-0.0455418
39.56,416.469,14.264,98.752,-0.0507041
39.79,418.769,14.246,98.628,-0.0564354
40.02,421.07,14.226,98.491,-0.0633700
40.25,423.37,14.204,98.337,-0.0695918
40.48,425.671,14.179,98.163,-0.0826782
40.71,427.971,14.148,97.945,-0.1094700
40.94,430.271,14.109,97.679,-0.1223230
41.17,432.572,14.065,97.371,-0.1419550
41.4,434.872,14.014,97.018,-0.1730850
41.63,437.173,13.954,96.608,-0.1859800
41.86,439.473,13.88,96.09,-0.2782730
42.09,441.774,13.764,95.287,-0.4066910
42.32,444.074,13.622,94.306,-0.4521720
42.55,446.374,13.455,93.15,-0.5605770
42.78,448.675,13.255,91.767,-0.6753470
43.01,450.975,12.998,89.987,-0.9164520
43.24,453.276,12.68,87.786,-1.15347
43.47,455.576,12.381,85.715,-1.04394
43.7,457.876,11.952,82.745,-1.58117
43.94,460.177,11.351,78.58,-1.86446
44.17,462.477,10.659,73.794,-2.11624
44.4,464.778,9.859,68.258,-2.47529
44.63,467.078,8.854,61.296,-2.41935
44.86,469.378,7.899,54.683,-2.71012
45.08,471.679,6.797,47.056,-3.97774
45.31,473.979,5.538,38.339,-4.2407
45.55,476.28,4.188,28.995,-3.49578
45.77,478.58,3.003,20.793,-3.68037
46,480.881,1.867,12.923,-3.18367
46.23,483.181,0.9270000,6.42,-2.33473
46.46,485.481,0.3370000,2.332,-1.26993
46.69,487.782,0.0770000,0.5320000,-0.3637910
46.91,490.082,0.0280000,0.1910000,-0.0343445
47.14,492.383,0.0170000,0.1190000,-0.0213229
47.38,494.683,0.0130000,0.0900000,-0.0067392
47.61,496.983,0.0120000,0.0810000,-0.0013776
47.84,499.284,0.0110000,0.0790000,-0.0003276
48.07,501.584,0.0110000,0.0780000,0.0001712
48.3,503.885,0.0110000,0.0790000,0.0003150
48.53,506.185,0.0110000,0.0790000,0.0004812
48.76,508.485,0.0110000,0.0790000,0.0003156
48.99,510.786,0.0120000,0.0800000,0.0004227
49.22,513.086,0.0120000,0.0800000,0.0000866
49.45,515.387,0.0120000,0.0810000,0.0000282
49.68,517.687,0.0120000,0.0810000,0.0004690
49.91,519.987,0.0120000,0.0810000,-0.0000152
50.14,522.288,0.0120000,0.0820000,0.0001565
50.37,524.588,0.0120000,0.0820000,-0.0000808
50.6,526.889,0.0120000,0.0830000,0.0000498
50.83,529.189,0.0120000,0.0830000,0.0004243
51.06,531.49,0.0120000,0.0830000,-0.0000004
51.29,533.79,0.0120000,0.0830000,-0.0000934
51.52,536.09,0.0120000,0.0840000,0.0003938
51.75,538.391,0.0120000,0.0840000,0.0002076
51.98,540.691,0.0120000,0.0840000,-0.0000265
52.21,542.992,0.0120000,0.0850000,0.0005491
52.44,545.292,0.0120000,0.0850000,0.0001833
52.67,547.592,0.0120000,0.0860000,-0.0001193
52.9,549.893,0.0120000,0.0860000,0.0001487
53.13,552.193,0.0130000,0.0870000,0.0005359
53.36,554.494,0.0130000,0.0870000,0.0002605
53.59,556.794,0.0130000,0.0880000,0.0001901
53.82,559.094,0.0130000,0.0880000,0.0006558
54.05,561.395,0.0130000,0.0890000,0.0005569
54.28,563.695,0.0130000,0.0900000,0.0005516
54.51,565.996,0.0130000,0.0910000,0.0002525
54.74,568.296,0.0130000,0.0920000,0.0006397
54.97,570.597,0.0130000,0.0930000,0.0006548
55.2,572.897,0.0140000,0.0940000,0.0004914
55.43,575.197,0.0140000,0.0960000,0.0004584
55.66,577.498,0.0140000,0.0970000,0.0005685
55.89,579.798,0.0140000,0.0980000,0.0006965
56.12,582.099,0.0140000,0.1000000,0.0008901
56.35,584.399,0.0150000,0.1020000,0.0010511
56.58,586.699,0.0150000,0.1040000,0.0007743
56.81,589,0.0150000,0.1060000,0.0011047
56.91,590,0.0150000,0.1070000,0.0010418

File: Resin19_1_.csv
0.6800000,30,12.105,100.025,0.0168180
0.9900000,32.3004,12.106,100.039,0.0081170
1.26,34.6008,12.107,100.046,0.0058866
1.51,36.9012,12.108,100.052,0.0046142
1.76,39.2016,12.109,100.056,0.0027992
2.01,41.5021,12.109,100.06,0.0014089
2.25,43.8025,12.109,100.064,0.0017335
2.49,46.1029,12.11,100.068,0.0011967
2.73,48.4033,12.11,100.072,0.0022375
2.97,50.7037,12.111,100.076,0.0012799
3.21,53.0041,12.111,100.08,0.0023084
3.44,55.3045,12.112,100.084,0.0011257
3.68,57.6049,12.112,100.088,0.0007006
3.91,59.9053,12.113,100.092,0.0013965
4.15,62.2058,12.113,100.096,0.0010666
4.38,64.5062,12.114,100.099,0.0015262
4.61,66.8066,12.114,100.102,0.0011064
4.84,69.107,12.114,100.105,0.0005985
5.08,71.4074,12.115,100.108,0.0019788
5.3,73.7078,12.115,100.111,0.0023370
5.54,76.0082,12.115,100.114,0.0004578
5.77,78.3086,12.116,100.116,0.0004581
6,80.609,12.116,100.118,0.0010566
6.23,82.9094,12.116,100.12,0.0012367
6.46,85.2099,12.117,100.122,0.0005024
6.69,87.5103,12.117,100.124,0.0007314
6.92,89.8107,12.117,100.125,0.0009154
7.15,92.1111,12.117,100.127,0.0004575
7.38,94.4115,12.117,100.128,0.0010535
7.61,96.7119,12.117,100.129,-0.0001371
7.84,99.0123,12.117,100.13,-0.0007312
8.07,101.313,12.118,100.131,0.0005045
8.3,103.613,12.118,100.131,0.0001376
8.53,105.914,12.118,100.131,-0.0000457
8.76,108.214,12.118,100.131,-0.0008222
8.99,110.514,12.118,100.131,0.0000916
9.22,112.815,12.118,100.131,0.0002753
9.45,115.115,12.118,100.131,-0.0000913
9.68,117.416,12.117,100.13,-0.0043971
9.91,119.716,12.117,100.13,-0.0003190
10.14,122.016,12.117,100.129,-0.0009644
10.37,124.317,12.117,100.128,0.0011037
10.6,126.617,12.117,100.128,-0.0004131
10.83,128.918,12.117,100.129,0.0005506
11.06,131.218,12.117,100.13,0.0006878
11.29,133.518,12.118,100.131,0.0000914
11.52,135.819,12.118,100.131,0.0009158
11.75,138.119,12.118,100.131,-0.0002279
11.98,140.42,12.117,100.129,-0.0014106
12.21,142.72,12.117,100.125,-0.0021792
12.44,145.021,12.116,100.12,-0.0019548
12.67,147.321,12.116,100.116,-0.0012815
12.9,149.621,12.115,100.114,-0.0007351
13.13,151.922,12.115,100.112,-0.0003222
13.36,154.222,12.115,100.11,-0.0001841
13.59,156.523,12.115,100.108,-0.0009190
13.82,158.823,12.115,100.107,-0.0009168
14.05,161.123,12.115,100.106,-0.0004589
14.28,163.424,12.115,100.106,-0.0005505
14.51,165.724,12.114,100.105,-0.0009613
14.74,168.025,12.114,100.103,-0.0004590
14.97,170.325,12.114,100.102,-0.0004125
15.2,172.625,12.114,100.101,0.0000917
15.43,174.926,12.114,100.1,-0.0007796
15.66,177.226,12.114,100.098,-0.0006873
15.89,179.527,12.113,100.096,-0.0009147
16.12,181.827,12.113,100.095,-0.0008702
16.35,184.128,12.113,100.093,-0.0009166
16.58,186.428,12.113,100.092,-0.0009161
16.81,188.728,12.113,100.09,-0.0007319
17.04,191.029,12.112,100.089,-0.0014665
17.27,193.329,12.112,100.087,-0.0008251
17.5,195.63,12.112,100.085,-0.0005950
17.73,197.93,12.112,100.083,-0.0006412
17.97,200.23,12.112,100.081,-0.0003204
18.19,202.531,12.111,100.079,-0.0006876
18.43,204.831,12.111,100.078,-0.0003661
18.66,207.132,12.111,100.076,-0.0017857
18.88,209.432,12.111,100.073,-0.0008706
19.12,211.732,12.11,100.071,-0.0005500
19.35,214.033,12.11,100.07,-0.0002750
19.58,216.333,12.11,100.067,-0.0016081
19.81,218.634,12.11,100.065,-0.0002296
20.04,220.934,12.109,100.063,-0.0009629
20.27,223.235,12.109,100.061,-0.0010551
20.5,225.535,12.109,100.059,-0.0011468
20.73,227.835,12.109,100.056,-0.0003211
20.96,230.136,12.108,100.053,-0.0019634
21.19,232.436,12.108,100.051,-0.0017836
21.42,234.737,12.108,100.049,-0.0009173
21.65,237.037,12.107,100.046,-0.0014621
21.88,239.337,12.107,100.044,-0.0009161
22.11,241.638,12.107,100.041,-0.0020596
22.34,243.938,12.106,100.038,-0.0004577
22.57,246.239,12.106,100.035,-0.0009170
22.8,248.539,12.106,100.032,-0.0014164
23.03,250.839,12.105,100.029,-0.0017412
23.26,253.14,12.105,100.025,-0.0009161
23.49,255.44,12.104,100.022,-0.0008716
23.72,257.741,12.104,100.019,-0.0019223
23.95,260.041,12.104,100.015,-0.0018775
24.18,262.341,12.103,100.012,-0.0013278
24.41,264.642,12.103,100.008,-0.0019241
24.64,266.942,12.102,100.004,-0.0014683
24.87,269.243,12.102,100,-0.0016942
25.1,271.543,12.101,99.996,-0.0025632
25.33,273.844,12.101,99.992,-0.0019213
25.56,276.144,12.1,99.987,-0.0019313
25.79,278.444,12.1,99.983,-0.0017828
26.02,280.745,12.099,99.978,-0.0016957
26.25,283.045,12.098,99.973,-0.0025666
26.48,285.346,12.098,99.968,-0.0020586
26.71,287.646,12.097,99.963,-0.0013303
26.94,289.946,12.097,99.959,-0.0016469
27.18,292.247,12.096,99.953,-0.0033010
27.41,294.547,12.095,99.948,-0.0022923
27.63,296.848,12.095,99.943,-0.0028899
27.87,299.148,12.094,99.937,-0.0024277
28.09,301.448,12.093,99.931,-0.0024298
28.33,303.749,12.093,99.925,-0.0033045
28.56,306.049,12.092,99.917,-0.0031692
28.78,308.35,12.091,99.911,-0.0023810
29.02,310.65,12.09,99.905,-0.0023365
29.25,312.951,12.089,99.898,-0.0022923
29.48,315.251,12.089,99.892,-0.0029288
29.71,317.551,12.088,99.886,-0.0024766
29.94,319.852,12.087,99.879,-0.0032040
30.17,322.152,12.086,99.873,-0.0026990
30.4,324.453,12.086,99.866,-0.0028002
30.63,326.753,12.085,99.859,-0.0024267
30.86,329.053,12.084,99.853,-0.0022449
31.09,331.354,12.083,99.846,-0.0030660
31.32,333.654,12.082,99.839,-0.0027447
31.55,335.955,12.081,99.831,-0.0027508
31.78,338.255,12.08,99.824,-0.0037034
32.01,340.555,12.079,99.816,-0.0027513
32.24,342.856,12.078,99.808,-0.0033852
32.47,345.156,12.077,99.8,-0.0043973
32.7,347.457,12.076,99.791,-0.0035760
32.93,349.757,12.075,99.782,-0.0042071
33.16,352.058,12.074,99.772,-0.0043459
33.39,354.358,12.073,99.762,-0.0039355
33.62,356.658,12.072,99.752,-0.0050778
33.85,358.959,12.07,99.741,-0.0057287
34.08,361.259,12.069,99.73,-0.0049541
34.31,363.56,12.068,99.717,-0.0053046
34.54,365.86,12.066,99.704,-0.0058599
34.77,368.16,12.064,99.69,-0.0077839
35,370.461,12.062,99.674,-0.0070351
35.23,372.761,12.06,99.658,-0.0082569
35.46,375.062,12.058,99.639,-0.0088403
35.69,377.362,12.056,99.62,-0.0085232
35.92,379.662,12.053,99.597,-0.0098235
36.15,381.963,12.05,99.572,-0.0129830
36.38,384.263,12.047,99.544,-0.0128323
36.61,386.564,12.043,99.513,-0.0143368
36.84,388.864,12.039,99.478,-0.0173218
37.07,391.164,12.034,99.439,-0.0173000
37.3,393.465,12.029,99.396,-0.0199890
37.53,395.765,12.023,99.348,-0.0222324
37.76,398.066,12.016,99.295,-0.0243221
37.99,400.366,12.009,99.236,-0.0271371
38.22,402.667,12.001,99.17,-0.0317758
38.45,404.967,11.992,99.095,-0.0340638
38.68,407.267,11.982,99.012,-0.0390123
38.91,409.568,11.97,98.915,-0.0473245
39.14,411.868,11.957,98.801,-0.0530330
39.37,414.169,11.941,98.675,-0.0575164
39.6,416.469,11.925,98.537,-0.0630952
39.83,418.769,11.906,98.386,-0.0690097
40.06,421.07,11.886,98.22,-0.0768246
40.29,423.37,11.864,98.035,-0.0853804
40.52,425.671,11.838,97.819,-0.0949752
40.75,427.971,11.805,97.546,-0.1434190
40.98,430.271,11.766,97.225,-0.1595560
41.21,432.572,11.721,96.853,-0.1765380
41.44,434.872,11.668,96.419,-0.1995600
41.67,437.173,11.605,95.899,-0.2607890
41.9,439.473,11.522,95.212,-0.3432170
42.13,441.774,11.412,94.297,-0.4757600
42.36,444.074,11.272,93.141,-0.5432180
42.59,446.374,11.114,91.836,-0.6629740
42.82,448.675,10.929,90.311,-0.7268770
43.05,450.975,10.706,88.463,-0.9209250
43.28,453.276,10.431,86.193,-1.11498
43.51,455.576,10.103,83.484,-1.30904
43.74,457.876,9.7,80.156,-1.48494
43.97,460.177,9.218,76.168,-1.85024
44.2,462.477,8.645,71.434,-2.32341
44.43,464.778,7.939,65.601,-2.77848
44.66,467.078,7.021,58.013,-4.05717
44.89,469.378,5.918,48.9,-4.04116
45.13,471.679,4.725,39.047,-2.76515
45.34,473.979,3.773,31.179,-3.72968
45.58,476.28,2.673,22.091,-4.01349
45.81,478.58,1.647,13.609,-3.14356
46.04,480.881,0.8530000,7.047,-2.54779
46.26,483.181,0.3220000,2.658,-1.33441
46.49,485.481,0.0780000,0.6460000,-0.4823810
46.72,487.782,0.0250000,0.2050000,-0.0422777
46.95,490.082,0.0130000,0.1100000,-0.0296077
47.19,492.383,0.0080000,0.0680000,-0.0095706
47.42,494.683,0.0070000,0.0550000,-0.0034240
47.65,496.983,0.0060000,0.0510000,-0.0009542
47.88,499.284,0.0060000,0.0500000,-0.0002365
48.11,501.584,0.0060000,0.0500000,-0.0003765
48.34,503.885,0.0060000,0.0500000,0.0002477
48.57,506.185,0.0060000,0.0500000,0.0003776
48.8,508.485,0.0060000,0.0510000,0.0014144
49.03,510.786,0.0060000,0.0520000,-0.0007073
49.26,513.086,0.0060000,0.0520000,-0.0005646
49.49,515.387,0.0060000,0.0520000,0.0003247
49.72,517.687,0.0060000,0.0530000,0.0003414
49.95,519.987,0.0060000,0.0540000,-0.0003420
50.18,522.288,0.0070000,0.0540000,0.0001330
50.41,524.588,0.0070000,0.0540000,0.0001730
50.64,526.889,0.0070000,0.0550000,-0.0008521
50.87,529.189,0.0070000,0.0550000,0.0000493
51.1,531.49,0.0070000,0.0550000,-0.0006574
51.33,533.79,0.0060000,0.0540000,-0.0010891
51.56,536.09,0.0060000,0.0530000,-0.0021417
51.79,538.391,0.0060000,0.0530000,-0.0001016
52.02,540.691,0.0060000,0.0540000,0.0001522
52.25,542.992,0.0070000,0.0540000,-0.0005558
52.48,545.292,0.0070000,0.0540000,0.0001097
52.71,547.592,0.0070000,0.0550000,-0.0008902
52.94,549.893,0.0070000,0.0550000,0.0006408
53.17,552.193,0.0070000,0.0540000,0.0001364
53.4,554.494,0.0070000,0.0550000,0.0017787
53.63,556.794,0.0070000,0.0570000,0.0008618
53.86,559.094,0.0070000,0.0580000,0.0005594
54.09,561.395,0.0070000,0.0580000,-0.0004447
54.32,563.695,0.0070000,0.0570000,-0.0003952
54.55,565.996,0.0070000,0.0580000,-0.0001019
54.78,568.296,0.0070000,0.0580000,-0.0003144
55.01,570.597,0.0070000,0.0580000,0.0000030
55.24,572.897,0.0070000,0.0580000,-0.0006213
55.47,575.197,0.0070000,0.0580000,-0.0002440
55.7,577.498,0.0070000,0.0580000,-0.0001605
55.93,579.798,0.0070000,0.0580000,0.0008020
56.16,582.099,0.0070000,0.0580000,-0.0001763
56.39,584.399,0.0070000,0.0580000,0.0002296
56.61,586.699,0.0070000,0.0590000,0.0002903
56.84,589,0.0070000,0.0600000,0.0001977
56.94,590,0.0070000,0.0600000,0.0005249