Folder: rHDPE_Data_Analysis/R/rHDPE_App/app/www/Output/TGA/Condensed_Data (part 20)

File: Resin18_0_.csv
0.0000000,30,16.11,100,-0.0303137
0.5500000,32.2004,16.111,100.005,0.0067830
0.8800000,34.4008,16.113,100.018,0.0056013
1.14,36.6012,16.114,100.024,0.0006915
1.39,38.8016,16.115,100.028,0.0029179
1.63,41.002,16.115,100.032,-0.0000499
1.87,43.2024,16.116,100.035,0.0023553
2.11,45.4028,16.116,100.038,0.0020861
2.34,47.6031,16.117,100.041,0.0021626
2.57,49.8035,16.117,100.044,0.0014326
2.8,52.0039,16.118,100.046,0.0011405
3.03,54.2043,16.118,100.049,0.0015597
3.25,56.4047,16.119,100.052,0.0011277
3.48,58.6051,16.119,100.054,0.0008886
3.7,60.8055,16.119,100.056,0.0009789
3.93,63.0059,16.12,100.059,0.0008826
4.15,65.2063,16.12,100.061,0.0010189
4.37,67.4067,16.12,100.063,0.0009238
4.59,69.6071,16.121,100.065,0.0007830
4.81,71.8075,16.121,100.067,0.0010587
5.04,74.0079,16.121,100.068,0.0006895
5.26,76.2083,16.122,100.07,0.0004591
5.48,78.4086,16.122,100.071,0.0005964
5.7,80.609,16.122,100.073,0.0010085
5.92,82.8094,16.122,100.074,0.0005958
6.14,85.0098,16.122,100.075,0.0009161
6.36,87.2102,16.123,100.077,0.0005037
6.58,89.4106,16.123,100.078,0.0003663
6.8,91.611,16.123,100.078,0.0001832
7.02,93.8114,16.123,100.079,0.0000915
7.24,96.0118,16.123,100.08,0.0003203
7.46,98.2122,16.123,100.081,0.0005035
7.68,100.413,16.123,100.081,0.0007321
7.9,102.613,16.123,100.082,0.0002746
8.12,104.813,16.124,100.082,0.0000000
8.34,107.014,16.124,100.082,-0.0001831
8.56,109.214,16.123,100.082,-0.0000458
8.78,111.415,16.124,100.082,-0.0001831
9,113.615,16.123,100.082,0.0000000
9.22,115.815,16.124,100.082,0.0002290
9.44,118.016,16.123,100.082,-0.0002749
9.66,120.216,16.123,100.082,-0.0001834
9.88,122.417,16.123,100.082,0.0000917
10.1,124.617,16.123,100.082,0.0005959
10.32,126.817,16.123,100.082,0.0001834
10.54,129.018,16.123,100.082,0.0003674
10.76,131.218,16.124,100.082,0.0000459
10.98,133.418,16.123,100.082,-0.0002290
11.2,135.619,16.123,100.081,-0.0002743
11.42,137.819,16.123,100.08,-0.0005477
11.64,140.02,16.123,100.078,-0.0006386
11.86,142.22,16.122,100.075,-0.0020015
12.08,144.42,16.122,100.071,-0.0019501
12.3,146.621,16.121,100.066,-0.0020479
12.52,148.821,16.12,100.062,-0.0020618
12.74,151.022,16.12,100.058,-0.0016107
12.96,153.222,16.119,100.055,-0.0014286
13.18,155.422,16.119,100.052,-0.0012888
13.4,157.623,16.118,100.05,-0.0012419
13.62,159.823,16.118,100.047,-0.0012864
13.84,162.024,16.117,100.045,-0.0010099
14.06,164.224,16.117,100.042,-0.0011007
14.28,166.424,16.117,100.039,-0.0010994
14.5,168.625,16.116,100.036,-0.0013278
14.72,170.825,16.116,100.033,-0.0017870
14.94,173.026,16.115,100.03,-0.0009166
15.16,175.226,16.115,100.026,-0.0012829
15.38,177.426,16.114,100.023,-0.0010999
15.6,179.627,16.113,100.02,-0.0014207
15.83,181.827,16.113,100.016,-0.0015118
16.05,184.028,16.112,100.013,-0.0018781
16.27,186.228,16.112,100.009,-0.0016492
16.48,188.428,16.111,100.006,-0.0013739
16.7,190.629,16.111,100.002,-0.0017411
16.93,192.829,16.11,99.998,-0.0019698
17.14,195.029,16.109,99.994,-0.0021540
17.37,197.23,16.109,99.99,-0.0018785
17.59,199.43,16.108,99.985,-0.0017865
17.81,201.631,16.107,99.981,-0.0018782
18.03,203.831,16.107,99.977,-0.0017865
18.25,206.031,16.106,99.973,-0.0021540
18.47,208.232,16.105,99.968,-0.0016493
18.69,210.432,16.104,99.964,-0.0022450
18.91,212.633,16.104,99.959,-0.0024736
19.13,214.833,16.103,99.954,-0.0019683
19.35,217.033,16.102,99.95,-0.0021992
19.57,219.234,16.101,99.945,-0.0019254
19.79,221.434,16.101,99.94,-0.0026142
20.01,223.635,16.1,99.935,-0.0022931
20.23,225.835,16.099,99.93,-0.0020623
20.45,228.035,16.098,99.925,-0.0024743
20.67,230.236,16.097,99.921,-0.0018786
20.89,232.436,16.097,99.916,-0.0025202
21.11,234.637,16.096,99.911,-0.0027941
21.33,236.837,16.095,99.905,-0.0021540
21.55,239.037,16.094,99.9,-0.0024736
21.77,241.238,16.093,99.895,-0.0020158
21.99,243.438,16.092,99.889,-0.0024283
22.21,245.639,16.092,99.884,-0.0026106
22.43,247.839,16.091,99.877,-0.0016952
22.65,250.039,16.09,99.872,-0.0022457
22.87,252.24,16.089,99.866,-0.0028859
23.09,254.44,16.088,99.86,-0.0027047
23.31,256.64,16.087,99.854,-0.0028398
23.53,258.841,16.086,99.847,-0.0032533
23.75,261.041,16.085,99.841,-0.0028867
23.97,263.242,16.084,99.834,-0.0033425
24.19,265.442,16.082,99.827,-0.0034341
24.41,267.642,16.081,99.82,-0.0029320
24.63,269.843,16.08,99.813,-0.0035734
24.85,272.043,16.079,99.806,-0.0032985
25.07,274.244,16.078,99.799,-0.0031136
25.29,276.444,16.077,99.792,-0.0036158
25.51,278.644,16.076,99.784,-0.0032539
25.73,280.845,16.074,99.777,-0.0034366
25.96,283.045,16.073,99.769,-0.0036630
26.18,285.246,16.072,99.761,-0.0036151
26.39,287.446,16.071,99.753,-0.0037525
26.62,289.646,16.069,99.745,-0.0041683
26.83,291.847,16.068,99.736,-0.0038462
27.06,294.047,16.066,99.727,-0.0038941
27.28,296.248,16.065,99.718,-0.0045496
27.49,298.448,16.064,99.71,-0.0045846
27.72,300.648,16.062,99.7,-0.0046178
27.93,302.849,16.06,99.69,-0.0045288
28.16,305.049,16.059,99.68,-0.0048059
28.38,307.25,16.057,99.669,-0.0045330
28.59,309.45,16.055,99.658,-0.0053085
28.82,311.65,16.053,99.647,-0.0055423
29.04,313.851,16.052,99.635,-0.0054915
29.26,316.051,16.049,99.622,-0.0058150
29.48,318.251,16.047,99.609,-0.0060440
29.7,320.452,16.045,99.596,-0.0066368
29.92,322.652,16.043,99.582,-0.0064560
30.14,324.853,16.041,99.567,-0.0071009
30.36,327.053,16.038,99.551,-0.0072384
30.58,329.253,16.035,99.534,-0.0072828
30.8,331.454,16.032,99.517,-0.0082921
31.02,333.654,16.029,99.498,-0.0082477
31.24,335.855,16.026,99.479,-0.0087421
31.46,338.055,16.023,99.458,-0.0094322
31.68,340.255,16.019,99.436,-0.0101190
31.9,342.456,16.016,99.413,-0.0115342
32.12,344.656,16.012,99.388,-0.0115299
32.34,346.857,16.008,99.362,-0.0124017
32.56,349.057,16.003,99.334,-0.0136497
32.78,351.257,15.998,99.304,-0.0139271
33,353.458,15.993,99.272,-0.0151044
33.22,355.658,15.987,99.237,-0.0163432
33.44,357.859,15.981,99.199,-0.0171152
33.66,360.059,15.975,99.162,-0.0165293
33.88,362.259,15.97,99.127,-0.0151640
34.1,364.46,15.965,99.095,-0.0139601
34.32,366.66,15.96,99.065,-0.0132784
34.54,368.861,15.955,99.036,-0.0129626
34.76,371.061,15.95,99.008,-0.0130107
34.98,373.261,15.946,98.98,-0.0131362
35.2,375.462,15.941,98.951,-0.0133700
35.42,377.662,15.937,98.922,-0.0135864
35.64,379.862,15.932,98.892,-0.0138533
35.86,382.063,15.927,98.862,-0.0140690
36.08,384.263,15.922,98.831,-0.0144504
36.3,386.464,15.917,98.798,-0.0151931
36.52,388.664,15.911,98.764,-0.0164835
36.74,390.864,15.905,98.727,-0.0178964
36.96,393.065,15.899,98.686,-0.0191287
37.18,395.265,15.892,98.643,-0.0203755
37.4,397.466,15.884,98.598,-0.0215462
37.62,399.666,15.877,98.549,-0.0236264
37.84,401.866,15.868,98.496,-0.0249542
38.06,404.067,15.859,98.439,-0.0273151
38.28,406.267,15.849,98.377,-0.0291050
38.5,408.468,15.838,98.309,-0.0335315
38.72,410.668,15.826,98.233,-0.0365843
38.94,412.868,15.812,98.148,-0.0410414
39.16,415.069,15.797,98.053,-0.0462658
39.38,417.269,15.779,97.945,-0.0523980
39.6,419.47,15.759,97.821,-0.0606351
39.82,421.67,15.736,97.675,-0.0766314
40.04,423.87,15.704,97.475,-0.1040250
40.26,426.071,15.663,97.222,-0.1239720
40.48,428.271,15.615,96.927,-0.1401490
40.7,430.472,15.552,96.533,-0.1980490
40.92,432.672,15.472,96.038,-0.2421200
41.14,434.872,15.375,95.438,-0.3063640
41.36,437.073,15.26,94.721,-0.3557010
41.58,439.273,15.122,93.864,-0.4409150
41.8,441.473,14.951,92.804,-0.5221900
42.02,443.674,14.746,91.534,-0.6125030
42.24,445.874,14.502,90.014,-0.8002510
42.46,448.075,14.215,88.237,-0.8564010
42.68,450.275,13.876,86.133,-1.03943
42.9,452.475,13.462,83.564,-1.24789
43.12,454.676,12.992,80.646,-1.46177
43.34,456.876,12.439,77.211,-1.58405
43.56,459.077,11.817,73.349,-1.88309
43.78,461.277,11.1,68.899,-2.31009
44,463.477,10.294,63.897,-2.36443
44.22,465.678,9.367,58.142,-2.7177
44.44,467.878,8.352,51.843,-3.08262
44.66,470.079,7.241,44.944,-3.27322
44.88,472.279,6.074,37.7,-3.28206
45.1,474.479,4.838,30.032,-3.2799
45.32,476.68,3.689,22.901,-3.14208
45.54,478.88,2.637,16.37,-2.77342
45.76,481.081,1.736,10.774,-2.20805
45.98,483.281,1.06,6.58,-1.56164
46.19,485.481,0.6350000,3.94,-0.8967720
46.41,487.682,0.4110000,2.551,-0.4217100
46.63,489.882,0.3130000,1.945,-0.1560870
46.85,492.083,0.2850000,1.769,-0.0394877
47.08,494.283,0.2740000,1.699,-0.0216180
47.3,496.483,0.2690000,1.669,-0.0079614
47.52,498.684,0.2670000,1.658,-0.0026733
47.74,500.884,0.2660000,1.654,-0.0009043
47.96,503.084,0.2660000,1.653,-0.0003673
48.18,505.285,0.2660000,1.652,-0.0002119
48.4,507.485,0.2660000,1.652,-0.0001570
48.62,509.686,0.2660000,1.651,-0.0000107
48.84,511.886,0.2660000,1.651,-0.0002136
49.06,514.086,0.2660000,1.65,-0.0001115
49.28,516.287,0.2660000,1.65,-0.0004454
49.49,518.487,0.2660000,1.65,-0.0003485
49.71,520.688,0.2660000,1.649,-0.0002367
49.94,522.888,0.2660000,1.648,0.0000036
50.16,525.088,0.2660000,1.648,-0.0000400
50.37,527.289,0.2650000,1.648,-0.0005607
50.59,529.489,0.2650000,1.647,-0.0001058
50.81,531.69,0.2650000,1.646,-0.0002030
51.03,533.89,0.2650000,1.645,-0.0005044
51.26,536.09,0.2650000,1.644,-0.0004146
51.48,538.291,0.2650000,1.643,-0.0006639
51.69,540.491,0.2650000,1.642,-0.0005012
51.91,542.692,0.2640000,1.641,-0.0006255
52.14,544.892,0.2640000,1.64,-0.0007854
52.35,547.092,0.2640000,1.638,-0.0005204
52.57,549.293,0.2640000,1.637,-0.0002844
52.79,551.493,0.2640000,1.636,-0.0004849
53.01,553.694,0.2630000,1.634,-0.0006691
53.23,555.894,0.2630000,1.633,-0.0009395
53.45,558.094,0.2630000,1.631,-0.0014636
53.67,560.295,0.2630000,1.63,-0.0007132
53.89,562.495,0.2620000,1.628,-0.0006053
54.11,564.695,0.2620000,1.626,-0.0008078
54.33,566.896,0.2620000,1.625,-0.0007782
54.55,569.096,0.2610000,1.623,-0.0008050
54.77,571.297,0.2610000,1.621,-0.0011138
54.99,573.497,0.2610000,1.618,-0.0011938
55.21,575.697,0.2600000,1.615,-0.0012620
55.43,577.898,0.2600000,1.612,-0.0015381
55.65,580.098,0.2590000,1.609,-0.0019045
55.87,582.299,0.2580000,1.605,-0.0015252
56.09,584.499,0.2580000,1.6,-0.0022641
56.31,586.699,0.2570000,1.595,-0.0023270
56.53,588.9,0.2560000,1.59,-0.0022593
56.64,590,0.2560000,1.587,-0.0021318

File: Resin18_1_.csv
0.6500000,30,9.749,100.033,0.0132524
0.9500000,32.2004,9.751,100.049,0.0082517
1.21,34.4008,9.752,100.058,0.0036816
1.46,36.6012,9.752,100.065,-0.0001014
1.69,38.8016,9.753,100.069,0.0043408
1.93,41.002,9.753,100.074,0.0027277
2.16,43.2024,9.754,100.078,0.0016405
2.39,45.4028,9.754,100.082,0.0037410
2.62,47.6031,9.754,100.086,0.0020996
2.85,49.8035,9.755,100.091,0.0018505
3.08,52.0039,9.755,100.096,0.0017937
3.31,54.2043,9.756,100.1,0.0025384
3.53,56.4047,9.756,100.104,0.0014984
3.76,58.6051,9.757,100.108,0.0016787
3.98,60.8055,9.757,100.112,0.0019988
4.2,63.0059,9.757,100.116,0.0015293
4.43,65.2063,9.758,100.12,0.0013872
4.65,67.4067,9.758,100.123,0.0015681
4.87,69.6071,9.758,100.127,0.0018895
5.09,71.8075,9.759,100.13,0.0019788
5.31,74.0079,9.759,100.134,0.0016086
5.53,76.2083,9.759,100.137,0.0010553
5.75,78.4086,9.76,100.139,0.0007790
5.97,80.609,9.76,100.142,0.0012369
6.19,82.8094,9.76,100.144,0.0012828
6.41,85.0098,9.76,100.146,0.0011444
6.64,87.2102,9.76,100.148,0.0006869
6.85,89.4106,9.761,100.15,0.0003661
7.07,91.611,9.761,100.152,0.0007324
7.29,93.8114,9.761,100.153,0.0005949
7.51,96.0118,9.761,100.155,0.0006406
7.73,98.2122,9.761,100.156,0.0001373
7.95,100.413,9.761,100.156,0.0001831
8.17,102.613,9.761,100.157,0.0010984
8.39,104.813,9.761,100.158,0.0010535
8.61,107.014,9.761,100.158,-0.0002749
8.83,109.214,9.761,100.159,0.0003666
9.05,111.415,9.761,100.159,0.0003668
9.28,113.615,9.761,100.159,-0.0003666
9.5,115.815,9.761,100.159,0.0000000
9.72,118.016,9.761,100.159,-0.0000458
9.93,120.216,9.761,100.159,0.0004582
10.15,122.417,9.761,100.159,0.0007338
10.38,124.617,9.762,100.159,0.0007338
10.6,126.817,9.762,100.16,-0.0001376
10.82,129.018,9.762,100.159,-0.0000458
11.04,131.218,9.761,100.158,-0.0003200
11.25,133.418,9.761,100.156,-0.0010956
11.48,135.619,9.761,100.153,-0.0016420
11.69,137.819,9.76,100.147,-0.0030502
11.91,140.02,9.76,100.141,-0.0022796
12.13,142.22,9.759,100.134,-0.0026063
12.35,144.42,9.759,100.13,-0.0020189
12.57,146.621,9.758,100.125,-0.0016539
12.8,148.821,9.758,100.122,-0.0013779
13.02,151.022,9.758,100.118,-0.0016067
13.24,153.222,9.757,100.115,-0.0014688
13.46,155.422,9.757,100.111,-0.0018357
13.68,157.623,9.757,100.108,-0.0021101
13.9,159.823,9.756,100.104,-0.0017882
14.12,162.024,9.756,100.1,-0.0025213
14.34,164.224,9.755,100.094,-0.0032102
14.56,166.424,9.755,100.089,-0.0028825
14.78,168.625,9.754,100.083,-0.0025667
15,170.825,9.754,100.078,-0.0018796
15.22,173.026,9.753,100.072,-0.0025174
15.44,175.226,9.753,100.067,-0.0017388
15.66,177.426,9.752,100.062,-0.0021986
15.88,179.627,9.751,100.056,-0.0026564
16.1,181.827,9.751,100.05,-0.0025651
16.32,184.028,9.75,100.044,-0.0025213
16.54,186.228,9.75,100.038,-0.0025192
16.76,188.428,9.749,100.032,-0.0034789
16.98,190.629,9.748,100.025,-0.0028383
17.2,192.829,9.748,100.019,-0.0032988
17.42,195.029,9.747,100.012,-0.0034837
17.64,197.23,9.746,100.005,-0.0029323
17.86,199.43,9.746,99.998,-0.0030686
18.08,201.631,9.745,99.992,-0.0022915
18.3,203.831,9.745,99.985,-0.0027948
18.52,206.031,9.744,99.978,-0.0031155
18.74,208.232,9.743,99.971,-0.0029349
18.96,210.432,9.743,99.964,-0.0030248
19.18,212.633,9.742,99.957,-0.0038919
19.4,214.833,9.741,99.95,-0.0030220
19.62,217.033,9.74,99.943,-0.0032518
19.84,219.234,9.74,99.936,-0.0030248
20.06,221.434,9.739,99.928,-0.0027961
20.28,223.635,9.738,99.921,-0.0031622
20.51,225.835,9.738,99.914,-0.0030695
20.73,228.035,9.737,99.907,-0.0035740
20.94,230.236,9.736,99.899,-0.0039883
21.17,232.436,9.735,99.892,-0.0035787
21.38,234.637,9.735,99.884,-0.0040378
21.61,236.837,9.734,99.877,-0.0031136
21.83,239.037,9.733,99.869,-0.0027918
22.05,241.238,9.732,99.861,-0.0032976
22.27,243.438,9.732,99.854,-0.0038031
22.49,245.639,9.731,99.846,-0.0035727
22.71,247.839,9.73,99.838,-0.0040304
22.93,250.039,9.729,99.83,-0.0040788
23.15,252.24,9.729,99.822,-0.0036172
23.37,254.44,9.728,99.814,-0.0034773
23.59,256.64,9.727,99.806,-0.0034830
23.81,258.841,9.726,99.798,-0.0036172
24.03,261.041,9.725,99.79,-0.0037122
24.25,263.242,9.725,99.781,-0.0039413
24.47,265.442,9.724,99.773,-0.0043554
24.69,267.642,9.723,99.764,-0.0039399
24.91,269.843,9.722,99.757,-0.0030678
25.13,272.043,9.721,99.748,-0.0046780
25.35,274.244,9.721,99.739,-0.0039377
25.57,276.444,9.72,99.729,-0.0039371
25.79,278.644,9.719,99.72,-0.0040330
26.01,280.845,9.718,99.711,-0.0037101
26.23,283.045,9.717,99.703,-0.0039858
26.45,285.246,9.716,99.694,-0.0039850
26.67,287.446,9.715,99.685,-0.0034799
26.89,289.646,9.714,99.676,-0.0044439
27.11,291.847,9.713,99.666,-0.0043498
27.33,294.047,9.712,99.656,-0.0041179
27.55,296.248,9.711,99.645,-0.0046271
27.77,298.448,9.71,99.636,-0.0044872
27.99,300.648,9.71,99.627,-0.0050844
28.21,302.849,9.709,99.617,-0.0049020
28.43,305.049,9.708,99.606,-0.0059525
28.65,307.25,9.706,99.595,-0.0051740
28.87,309.45,9.705,99.583,-0.0057692
29.09,311.65,9.704,99.571,-0.0058641
29.31,313.851,9.703,99.559,-0.0057766
29.53,316.051,9.702,99.546,-0.0055382
29.75,318.251,9.7,99.533,-0.0062328
29.97,320.452,9.699,99.52,-0.0066007
30.19,322.652,9.698,99.506,-0.0064538
30.41,324.853,9.696,99.489,-0.0103938
30.63,327.053,9.694,99.469,-0.0076007
30.85,329.253,9.693,99.452,-0.0068619
31.07,331.454,9.691,99.436,-0.0077381
31.29,333.654,9.689,99.42,-0.0077381
31.51,335.855,9.688,99.404,-0.0070932
31.73,338.055,9.686,99.387,-0.0073761
31.95,340.255,9.685,99.37,-0.0094322
32.17,342.456,9.683,99.351,-0.0091575
32.39,344.656,9.681,99.332,-0.0092528
32.61,346.857,9.679,99.312,-0.0092033
32.83,349.057,9.677,99.293,-0.0088419
33.05,351.257,9.675,99.274,-0.0075578
33.27,353.458,9.674,99.257,-0.0078270
33.49,355.658,9.672,99.24,-0.0085735
33.71,357.859,9.67,99.224,-0.0065078
33.93,360.059,9.669,99.208,-0.0065476
34.16,362.259,9.667,99.193,-0.0085734
34.38,364.46,9.666,99.176,-0.0076465
34.59,366.66,9.664,99.159,-0.0077810
34.82,368.861,9.662,99.141,-0.0085701
35.04,371.061,9.66,99.123,-0.0090659
35.26,373.261,9.659,99.103,-0.0086934
35.48,375.462,9.656,99.081,-0.0101548
35.69,377.662,9.654,99.057,-0.0107861
35.91,379.862,9.652,99.032,-0.0122207
36.14,382.063,9.649,99.005,-0.0133120
36.36,384.263,9.646,98.976,-0.0136979
36.58,386.464,9.643,98.944,-0.0158053
36.79,388.664,9.64,98.91,-0.0166299
37.01,390.864,9.636,98.872,-0.0179945
37.24,393.065,9.632,98.831,-0.0193681
37.46,395.265,9.628,98.786,-0.0215084
37.68,397.466,9.623,98.737,-0.0233388
37.89,399.666,9.618,98.683,-0.0246112
38.11,401.866,9.612,98.623,-0.0285256
38.34,404.067,9.605,98.557,-0.0315934
38.56,406.267,9.598,98.484,-0.0355506
38.78,408.468,9.59,98.403,-0.0392616
38.99,410.668,9.582,98.313,-0.0420475
39.21,412.868,9.572,98.214,-0.0471233
39.44,415.069,9.561,98.103,-0.0534079
39.66,417.269,9.549,97.977,-0.0609432
39.88,419.47,9.535,97.833,-0.0701538
40.09,421.67,9.518,97.666,-0.0812900
40.32,423.87,9.5,97.471,-0.0949936
40.54,426.071,9.477,97.245,-0.1154620
40.76,428.271,9.445,96.912,-0.1913330
40.98,430.472,9.399,96.442,-0.2384720
41.19,432.672,9.346,95.894,-0.2714830
41.41,434.872,9.278,95.194,-0.3502560
41.64,437.073,9.196,94.357,-0.4208540
41.86,439.273,9.096,93.328,-0.5014190
42.08,441.473,8.979,92.128,-0.5998530
42.29,443.674,8.837,90.678,-0.7243390
42.52,445.874,8.664,88.899,-0.8523690
42.74,448.075,8.455,86.756,-1.02377
42.96,450.275,8.202,84.161,-1.39189
43.18,452.475,7.885,80.904,-1.41232
43.4,454.676,7.545,77.418,-1.68737
43.62,456.876,7.142,73.284,-2.0809
43.84,459.077,6.68,68.544,-2.20458
44.06,461.277,6.158,63.18,-2.39765
44.28,463.477,5.574,57.193,-2.88683
44.5,465.678,4.918,50.461,-3.20275
44.72,467.878,4.219,43.292,-3.37962
44.94,470.079,3.484,35.744,-3.41132
45.16,472.279,2.746,28.172,-3.41559
45.38,474.479,2.038,20.908,-3.22017
45.59,476.68,1.401,14.373,-2.70031
45.81,478.88,0.8850000,9.085,-2.0739
46.03,481.081,0.5240000,5.38,-1.30841
46.25,483.281,0.3170000,3.256,-0.6764270
46.47,485.481,0.2180000,2.234,-0.2799300
46.69,487.682,0.1820000,1.864,-0.0731623
46.91,489.882,0.1680000,1.725,-0.0485072
47.14,492.083,0.1610000,1.656,-0.0182601
47.36,494.283,0.1590000,1.631,-0.0057816
47.58,496.483,0.1580000,1.622,-0.0020395
47.8,498.684,0.1580000,1.619,-0.0014021
48.02,500.884,0.1580000,1.617,-0.0005105
48.24,503.084,0.1580000,1.617,-0.0006146
48.46,505.285,0.1580000,1.616,0.0004562
48.68,507.485,0.1580000,1.616,0.0000350
48.9,509.686,0.1570000,1.616,0.0003601
49.12,511.886,0.1570000,1.616,0.0001157
49.34,514.086,0.1570000,1.615,-0.0000057
49.56,516.287,0.1570000,1.614,-0.0007879
49.78,518.487,0.1570000,1.613,-0.0007353
50,520.688,0.1570000,1.611,-0.0007263
50.21,522.888,0.1570000,1.611,-0.0005031
50.44,525.088,0.1570000,1.61,-0.0004307
50.66,527.289,0.1570000,1.609,-0.0007654
50.88,529.489,0.1570000,1.608,-0.0008006
51.09,531.69,0.1570000,1.607,-0.0000923
51.31,533.89,0.1570000,1.606,0.0002208
51.54,536.09,0.1560000,1.605,-0.0009423
51.76,538.291,0.1560000,1.604,-0.0004809
51.98,540.491,0.1560000,1.603,-0.0009247
52.19,542.692,0.1560000,1.601,-0.0011102
52.41,544.892,0.1560000,1.6,-0.0006108
52.63,547.092,0.1560000,1.598,-0.0008576
52.85,549.293,0.1560000,1.597,-0.0006349
53.07,551.493,0.1560000,1.596,-0.0003949
53.29,553.694,0.1550000,1.595,-0.0017113
53.51,555.894,0.1550000,1.594,-0.0004497
53.73,558.094,0.1550000,1.592,-0.0005979
53.95,560.295,0.1550000,1.591,-0.0010684
54.17,562.495,0.1550000,1.589,-0.0009583
54.39,564.695,0.1550000,1.586,-0.0008278
54.61,566.896,0.1540000,1.584,-0.0010783
54.83,569.096,0.1540000,1.582,-0.0017580
55.05,571.297,0.1540000,1.578,-0.0020924
55.27,573.497,0.1530000,1.575,-0.0020997
55.49,575.697,0.1530000,1.57,-0.0037152
55.71,577.898,0.1530000,1.565,-0.0026135
55.93,580.098,0.1520000,1.558,-0.0029422
56.15,582.299,0.1510000,1.552,-0.0025533
56.37,584.499,0.1510000,1.544,-0.0033228
56.59,586.699,0.1500000,1.537,-0.0040155
56.81,588.9,0.1490000,1.529,-0.0039071
56.92,590,0.1490000,1.524,-0.0044090