Folder: rHDPE_Data_Analysis/R/rHDPE_App/app/www/Output/TGA/Condensed_Data (part 19)

File: Resin17_0__1.csv
0.8700000,30,12.667,100.025,0.0087407
1.14,32.3004,12.668,100.033,0.0029690
1.41,34.6008,12.669,100.039,0.0031006
1.66,36.9012,12.67,100.043,0.0002977
1.9,39.2016,12.67,100.047,0.0010263
2.15,41.5021,12.671,100.051,0.0015023
2.39,43.8025,12.671,100.054,0.0017818
2.63,46.1029,12.672,100.058,0.0014806
2.87,48.4033,12.672,100.061,0.0013753
3.11,50.7037,12.672,100.065,0.0014611
3.34,53.0041,12.673,100.068,0.0015004
3.58,55.3045,12.673,100.072,0.0013539
3.81,57.6049,12.674,100.075,0.0012091
4.05,59.9053,12.674,100.078,0.0013444
4.28,62.2058,12.674,100.081,0.0010633
4.51,64.5062,12.675,100.084,0.0013837
4.74,66.8066,12.675,100.086,0.0013820
4.98,69.107,12.676,100.089,0.0011036
5.21,71.4074,12.676,100.092,0.0008259
5.44,73.7078,12.676,100.094,0.0007792
5.67,76.0082,12.676,100.097,0.0007332
5.9,78.3086,12.677,100.099,0.0008244
6.13,80.609,12.677,100.101,0.0007322
6.36,82.9094,12.677,100.103,0.0007785
6.59,85.2099,12.678,100.105,0.0007325
6.82,87.5103,12.678,100.107,0.0005034
7.05,89.8107,12.678,100.109,0.0005031
7.28,92.1111,12.678,100.11,0.0004115
7.51,94.4115,12.678,100.111,0.0003204
7.74,96.7119,12.678,100.112,0.0003657
7.97,99.0123,12.679,100.114,0.0005949
8.2,101.313,12.679,100.115,0.0004572
8.43,103.613,12.679,100.116,0.0002289
8.66,105.914,12.679,100.117,0.0005038
8.89,108.214,12.679,100.118,0.0002287
9.12,110.514,12.679,100.118,0.0000000
9.35,112.815,12.679,100.119,0.0003205
9.58,115.115,12.679,100.12,-0.0000458
9.81,117.416,12.679,100.12,0.0004580
10.04,119.716,12.68,100.121,0.0002291
10.27,122.016,12.68,100.121,-0.0000458
10.5,124.317,12.68,100.122,0.0000458
10.73,126.617,12.68,100.123,0.0005953
10.96,128.918,12.68,100.124,0.0006415
11.19,131.218,12.68,100.125,0.0004132
11.42,133.518,12.68,100.126,0.0002294
11.65,135.819,12.68,100.127,0.0009160
11.88,138.119,12.68,100.128,0.0003205
12.11,140.42,12.68,100.127,-0.0008229
12.34,142.72,12.68,100.125,-0.0017727
12.57,145.021,12.679,100.12,-0.0019546
12.8,147.321,12.679,100.116,-0.0013264
13.03,149.621,12.679,100.114,-0.0008243
13.26,151.922,12.678,100.112,-0.0008732
13.49,154.222,12.678,100.11,-0.0000918
13.72,156.523,12.678,100.11,-0.0004591
13.95,158.823,12.678,100.109,-0.0005054
14.18,161.123,12.678,100.108,-0.0003676
14.41,163.424,12.678,100.107,-0.0001373
14.64,165.724,12.678,100.106,-0.0005498
14.87,168.025,12.678,100.106,-0.0003223
15.1,170.325,12.678,100.105,-0.0001377
15.33,172.625,12.677,100.104,-0.0005489
15.56,174.926,12.677,100.103,-0.0000915
15.79,177.226,12.677,100.103,-0.0000000
16.02,179.527,12.677,100.102,-0.0002289
16.25,181.827,12.677,100.101,-0.0007333
16.48,184.128,12.677,100.101,-0.0002751
16.71,186.428,12.677,100.1,-0.0002750
16.94,188.728,12.677,100.099,-0.0001833
17.17,191.029,12.677,100.098,-0.0005939
17.4,193.329,12.677,100.097,-0.0005519
17.63,195.63,12.677,100.097,-0.0001375
17.86,197.93,12.676,100.096,-0.0006393
18.09,200.23,12.676,100.095,-0.0002293
18.33,202.531,12.676,100.095,-0.0003212
18.56,204.831,12.676,100.094,-0.0007796
18.78,207.132,12.676,100.093,-0.0005495
19.02,209.432,12.676,100.092,-0.0004580
19.25,211.732,12.676,100.091,-0.0004586
19.48,214.033,12.676,100.09,-0.0001833
19.71,216.333,12.676,100.089,-0.0002288
19.94,218.634,12.675,100.088,-0.0005962
20.17,220.934,12.675,100.087,-0.0007334
20.4,223.235,12.675,100.086,-0.0000911
20.63,225.535,12.675,100.085,-0.0004584
20.86,227.835,12.675,100.084,-0.0004599
21.09,230.136,12.675,100.083,-0.0006870
21.32,232.436,12.675,100.082,-0.0002286
21.55,234.737,12.674,100.081,0.0000458
21.78,237.037,12.674,100.08,-0.0005099
22.01,239.337,12.674,100.079,-0.0004549
22.24,241.638,12.674,100.078,-0.0004096
22.47,243.938,12.674,100.077,-0.0001832
22.7,246.239,12.674,100.076,-0.0008239
22.93,248.539,12.674,100.074,-0.0006418
23.16,250.839,12.674,100.073,-0.0002748
23.39,253.14,12.673,100.072,-0.0003201
23.62,255.44,12.673,100.071,-0.0007334
23.85,257.741,12.673,100.07,-0.0005501
24.08,260.041,12.673,100.069,-0.0000458
24.31,262.341,12.673,100.068,-0.0004587
24.54,264.642,12.673,100.066,-0.0005947
24.77,266.942,12.672,100.065,-0.0007313
25,269.243,12.672,100.064,-0.0005958
25.23,271.543,12.672,100.062,-0.0005037
25.46,273.844,12.672,100.061,-0.0008692
25.69,276.144,12.672,100.059,-0.0007335
25.92,278.444,12.672,100.058,-0.0004569
26.15,280.745,12.671,100.056,-0.0006422
26.38,283.045,12.671,100.054,-0.0006877
26.61,285.346,12.671,100.053,-0.0009621
26.84,287.646,12.671,100.051,-0.0010088
27.07,289.946,12.67,100.049,-0.0009154
27.3,292.247,12.67,100.047,-0.0010060
27.53,294.547,12.67,100.045,-0.0010527
27.76,296.848,12.67,100.043,-0.0014666
27.99,299.148,12.669,100.041,-0.0012837
28.22,301.448,12.669,100.039,-0.0011430
28.45,303.749,12.669,100.037,-0.0009615
28.68,306.049,12.669,100.034,-0.0008246
28.91,308.35,12.668,100.032,-0.0010999
29.14,310.65,12.668,100.03,-0.0012809
29.38,312.951,12.668,100.027,-0.0014660
29.61,315.251,12.667,100.025,-0.0016475
29.83,317.551,12.667,100.022,-0.0010531
30.07,319.852,12.667,100.019,-0.0010080
30.29,322.152,12.666,100.016,-0.0016468
30.53,324.453,12.666,100.013,-0.0013298
30.76,326.753,12.666,100.01,-0.0011905
30.98,329.053,12.665,100.007,-0.0015110
31.22,331.354,12.665,100.004,-0.0010989
31.44,333.654,12.664,100.001,-0.0015132
31.68,335.955,12.664,99.998,-0.0015568
31.91,338.255,12.663,99.994,-0.0014652
32.13,340.555,12.663,99.99,-0.0020604
32.37,342.856,12.662,99.986,-0.0011905
32.59,345.156,12.662,99.982,-0.0020594
32.83,347.457,12.661,99.977,-0.0021512
33.06,349.757,12.661,99.973,-0.0018790
33.28,352.058,12.66,99.968,-0.0020589
33.52,354.358,12.66,99.963,-0.0017873
33.75,356.658,12.659,99.958,-0.0020154
33.98,358.959,12.658,99.952,-0.0027890
34.21,361.259,12.657,99.947,-0.0024232
34.44,363.56,12.657,99.94,-0.0030275
34.67,365.86,12.656,99.933,-0.0027915
34.9,368.16,12.655,99.926,-0.0032051
35.13,370.461,12.654,99.917,-0.0035616
35.36,372.761,12.653,99.908,-0.0042202
35.59,375.062,12.651,99.898,-0.0044872
35.82,377.362,12.65,99.887,-0.0049020
36.05,379.662,12.648,99.875,-0.0059469
36.28,381.963,12.647,99.861,-0.0063163
36.51,384.263,12.645,99.845,-0.0071886
36.74,386.564,12.642,99.828,-0.0081397
36.97,388.864,12.64,99.808,-0.0094780
37.2,391.164,12.637,99.785,-0.0101098
37.43,393.465,12.634,99.76,-0.0118525
37.66,395.765,12.63,99.732,-0.0131290
37.89,398.066,12.626,99.7,-0.0143184
38.12,400.366,12.622,99.664,-0.0165660
38.35,402.667,12.617,99.624,-0.0186185
38.58,404.967,12.611,99.579,-0.0205473
38.81,407.267,12.604,99.528,-0.0236591
39.04,409.568,12.597,99.47,-0.0260292
39.27,411.868,12.589,99.405,-0.0298425
39.5,414.169,12.58,99.332,-0.0341575
39.73,416.469,12.569,99.248,-0.0384510
39.96,418.769,12.557,99.155,-0.0429329
40.19,421.07,12.544,99.05,-0.0492868
40.42,423.37,12.528,98.927,-0.0568432
40.65,425.671,12.51,98.784,-0.0672372
40.88,427.971,12.489,98.617,-0.0791231
41.11,430.271,12.462,98.403,-0.1134160
41.34,432.572,12.424,98.104,-0.1480770
41.57,434.872,12.379,97.745,-0.1739490
41.8,437.173,12.323,97.309,-0.2109730
42.03,439.473,12.259,96.801,-0.2457920
42.26,441.774,12.175,96.138,-0.3383270
42.49,444.074,12.046,95.12,-0.5131950
42.72,446.374,11.881,93.818,-0.6218390
42.95,448.675,11.691,92.316,-0.6180340
43.18,450.975,11.49,90.731,-0.9239930
43.41,453.276,11.212,88.532,-1.10613
43.64,455.576,10.895,86.033,-1.30758
43.87,457.876,10.498,82.898,-1.48989
44.1,460.177,10.009,79.037,-1.89344
44.33,462.477,9.417,74.362,-2.21096
44.56,464.778,8.715,68.818,-2.50412
44.79,467.078,7.877,62.199,-3.22668
45.02,469.378,6.912,54.578,-3.56213
45.25,471.679,5.832,46.048,-4.00182
45.48,473.979,4.651,36.728,-3.93022
45.71,476.28,3.435,27.12,-4.27799
45.94,478.58,2.26,17.844,-3.83884
46.17,480.881,1.232,9.73,-3.16804
46.39,483.181,0.4860000,3.84,-1.96805
46.62,485.481,0.1170000,0.9250000,-0.6465290
46.85,487.782,0.0340000,0.2680000,-0.0575931
47.08,490.082,0.0240000,0.1890000,-0.0233532
47.31,492.383,0.0200000,0.1560000,-0.0074040
47.55,494.683,0.0190000,0.1460000,-0.0020198
47.78,496.983,0.0180000,0.1440000,-0.0004181
48.01,499.284,0.0180000,0.1430000,-0.0001796
48.24,501.584,0.0180000,0.1420000,-0.0000757
48.46,503.885,0.0180000,0.1430000,0.0000035
48.69,506.185,0.0180000,0.1430000,0.0003321
48.93,508.485,0.0180000,0.1430000,0.0001253
49.16,510.786,0.0180000,0.1430000,0.0000841
49.39,513.086,0.0180000,0.1430000,0.0003083
49.61,515.387,0.0180000,0.1440000,0.0001706
49.84,517.687,0.0180000,0.1440000,0.0001964
50.07,519.987,0.0180000,0.1440000,-0.0000806
50.3,522.288,0.0180000,0.1440000,-0.0005016
50.53,524.588,0.0180000,0.1440000,-0.0000053
50.76,526.889,0.0180000,0.1440000,-0.0000827
50.99,529.189,0.0180000,0.1440000,0.0005511
51.22,531.49,0.0180000,0.1440000,0.0002328
51.45,533.79,0.0180000,0.1440000,0.0002902
51.68,536.09,0.0180000,0.1440000,-0.0005570
51.91,538.391,0.0180000,0.1440000,-0.0003482
52.14,540.691,0.0180000,0.1440000,0.0001481
52.37,542.992,0.0180000,0.1440000,0.0001532
52.6,545.292,0.0180000,0.1440000,-0.0002567
52.83,547.592,0.0180000,0.1440000,-0.0004024
53.06,549.893,0.0180000,0.1440000,0.0000960
53.29,552.193,0.0180000,0.1440000,-0.0001327
53.52,554.494,0.0180000,0.1430000,-0.0001687
53.75,556.794,0.0180000,0.1430000,0.0000816
53.98,559.094,0.0180000,0.1430000,0.0002951
54.21,561.395,0.0180000,0.1430000,-0.0003338
54.44,563.695,0.0180000,0.1430000,-0.0002455
54.67,565.996,0.0180000,0.1430000,0.0000365
54.9,568.296,0.0180000,0.1430000,0.0002981
55.13,570.597,0.0180000,0.1430000,0.0000381
55.36,572.897,0.0180000,0.1420000,-0.0001315
55.59,575.197,0.0180000,0.1420000,-0.0003206
55.82,577.498,0.0180000,0.1420000,0.0000587
56.05,579.798,0.0180000,0.1420000,-0.0000308
56.28,582.099,0.0180000,0.1420000,-0.0002772
56.51,584.399,0.0180000,0.1420000,0.0003772
56.74,586.699,0.0180000,0.1420000,-0.0002783
56.97,589,0.0180000,0.1420000,0.0003640
57.07,590,0.0180000,0.1420000,0.0003804

File: Resin17_1_.csv
1.25,30,11.771,100.054,-0.0007270
1.51,32.3004,11.772,100.058,-0.0006485
1.76,34.6008,11.772,100.061,0.0019043
2,36.9012,11.773,100.064,0.0017892
2.24,39.2016,11.773,100.067,0.0004323
2.48,41.5021,11.773,100.07,0.0017676
2.72,43.8025,11.774,100.074,0.0014737
2.96,46.1029,11.774,100.077,0.0015140
3.2,48.4033,11.775,100.08,0.0017880
3.44,50.7037,11.775,100.084,0.0015475
3.67,53.0041,11.775,100.088,0.0020083
3.91,55.3045,11.776,100.091,0.0014430
4.14,57.6049,11.776,100.095,0.0014852
4.37,59.9053,11.777,100.098,0.0011105
4.6,62.2058,11.777,100.101,0.0012471
4.84,64.5062,11.777,100.104,0.0013356
5.06,66.8066,11.778,100.107,0.0016560
5.3,69.107,11.778,100.11,0.0009194
5.53,71.4074,11.778,100.112,0.0012856
5.76,73.7078,11.779,100.115,0.0010549
5.99,76.0082,11.779,100.117,0.0008257
6.22,78.3086,11.779,100.119,0.0005959
6.45,80.609,11.779,100.121,0.0010995
6.68,82.9094,11.78,100.123,0.0006868
6.91,85.2099,11.78,100.125,0.0008245
7.14,87.5103,11.78,100.127,0.0010533
7.37,89.8107,11.78,100.128,0.0003205
7.6,92.1111,11.78,100.13,0.0004576
7.83,94.4115,11.781,100.131,0.0003662
8.06,96.7119,11.781,100.132,0.0000000
8.29,99.0123,11.781,100.133,0.0003663
8.52,101.313,11.781,100.134,0.0002288
8.75,103.613,11.781,100.134,0.0003662
8.98,105.914,11.781,100.135,0.0001831
9.21,108.214,11.781,100.135,0.0000916
9.44,110.514,11.781,100.135,-0.0000916
9.67,112.815,11.781,100.135,-0.0005955
9.9,115.115,11.781,100.135,0.0006412
10.13,117.416,11.781,100.135,-0.0002289
10.36,119.716,11.781,100.135,-0.0003209
10.59,122.016,11.781,100.135,0.0003669
10.82,124.317,11.781,100.135,0.0002751
11.05,126.617,11.781,100.135,0.0003672
11.28,128.918,11.781,100.136,0.0004588
11.51,131.218,11.781,100.136,0.0001833
11.74,133.518,11.781,100.136,-0.0000916
11.97,135.819,11.781,100.136,-0.0000000
12.2,138.119,11.781,100.134,-0.0002283
12.43,140.42,11.781,100.131,-0.0016856
12.66,142.72,11.78,100.126,-0.0024076
12.89,145.021,11.779,100.12,-0.0014605
13.12,147.321,11.779,100.116,-0.0016514
13.35,149.621,11.778,100.113,-0.0015637
13.58,151.922,11.778,100.111,-0.0006892
13.81,154.222,11.778,100.109,-0.0000920
14.04,156.523,11.778,100.107,-0.0012395
14.27,158.823,11.777,100.105,-0.0012362
14.5,161.123,11.777,100.103,-0.0006882
14.73,163.424,11.777,100.102,-0.0005964
14.97,165.724,11.777,100.1,-0.0008253
15.2,168.025,11.777,100.099,-0.0009624
15.43,170.325,11.777,100.098,-0.0003667
15.66,172.625,11.776,100.096,-0.0008249
15.89,174.926,11.776,100.095,-0.0009162
16.12,177.226,11.776,100.094,-0.0001832
16.35,179.527,11.776,100.092,-0.0004576
16.58,181.827,11.776,100.091,-0.0006868
16.81,184.128,11.776,100.09,-0.0004581
17.04,186.428,11.776,100.089,-0.0004123
17.27,188.728,11.776,100.088,-0.0000917
17.5,191.029,11.775,100.088,-0.0001373
17.73,193.329,11.775,100.087,-0.0005496
17.96,195.63,11.775,100.086,0.0000917
18.19,197.93,11.775,100.086,-0.0006425
18.42,200.23,11.775,100.085,0.0002292
18.65,202.531,11.775,100.084,0.0002294
18.88,204.831,11.775,100.084,0.0000000
19.11,207.132,11.775,100.083,-0.0003667
19.34,209.432,11.775,100.082,-0.0003666
19.57,211.732,11.775,100.082,-0.0003669
19.8,214.033,11.775,100.08,-0.0009620
20.03,216.333,11.774,100.078,-0.0009613
20.26,218.634,11.774,100.077,-0.0001373
20.49,220.934,11.774,100.076,-0.0007335
20.72,223.235,11.774,100.074,-0.0009174
20.95,225.535,11.774,100.073,-0.0006874
21.18,227.835,11.773,100.071,-0.0013275
21.41,230.136,11.773,100.069,-0.0001831
21.64,232.436,11.773,100.068,-0.0010541
21.87,234.737,11.773,100.067,-0.0009622
22.1,237.037,11.773,100.065,-0.0006872
22.33,239.337,11.773,100.064,-0.0007327
22.56,241.638,11.772,100.062,-0.0006872
22.79,243.938,11.772,100.061,-0.0008255
23.02,246.239,11.772,100.06,-0.0004581
23.26,248.539,11.772,100.057,-0.0006420
23.48,250.839,11.772,100.056,0.0003661
23.72,253.14,11.772,100.054,-0.0010078
23.94,255.44,11.771,100.052,-0.0006412
24.18,257.741,11.771,100.051,-0.0003205
24.41,260.041,11.771,100.049,-0.0005044
24.64,262.341,11.771,100.048,-0.0005498
24.87,264.642,11.771,100.046,-0.0002752
25.1,266.942,11.77,100.044,-0.0014194
25.33,269.243,11.77,100.042,-0.0013729
25.56,271.543,11.77,100.04,-0.0015124
25.79,273.844,11.77,100.038,-0.0004583
26.02,276.144,11.769,100.035,-0.0009164
26.25,278.444,11.769,100.033,-0.0006872
26.48,280.745,11.769,100.031,-0.0009626
26.71,283.045,11.769,100.029,-0.0012369
26.94,285.346,11.768,100.027,-0.0010525
27.17,287.646,11.768,100.024,-0.0010539
27.4,289.946,11.768,100.022,-0.0009619
27.63,292.247,11.767,100.02,-0.0006873
27.86,294.547,11.767,100.017,-0.0010989
28.09,296.848,11.767,100.014,-0.0015110
28.32,299.148,11.766,100.012,-0.0014652
28.55,301.448,11.766,100.009,-0.0013278
28.78,303.749,11.766,100.006,-0.0011916
29.01,306.049,11.765,100.003,-0.0013744
29.24,308.35,11.765,100,-0.0016019
29.47,310.65,11.765,99.997,-0.0013284
29.7,312.951,11.764,99.993,-0.0012865
29.93,315.251,11.764,99.991,-0.0015121
30.16,317.551,11.764,99.987,-0.0013741
30.39,319.852,11.763,99.984,-0.0013736
30.62,322.152,11.763,99.98,-0.0009619
30.85,324.453,11.762,99.976,-0.0016478
31.08,326.753,11.762,99.973,-0.0015120
31.31,329.053,11.761,99.969,-0.0012372
31.54,331.354,11.761,99.965,-0.0014660
31.77,333.654,11.761,99.961,-0.0023339
32,335.955,11.76,99.957,-0.0019220
32.23,338.255,11.76,99.953,-0.0014652
32.46,340.555,11.759,99.948,-0.0022927
32.69,342.856,11.759,99.944,-0.0022877
32.92,345.156,11.758,99.939,-0.0019231
33.15,347.457,11.757,99.934,-0.0021508
33.38,349.757,11.757,99.929,-0.0024267
33.61,352.058,11.756,99.924,-0.0029789
33.84,354.358,11.756,99.919,-0.0021548
34.07,356.658,11.755,99.913,-0.0024245
34.3,358.959,11.754,99.907,-0.0027920
34.53,361.259,11.753,99.9,-0.0025641
34.76,363.56,11.753,99.893,-0.0035747
34.99,365.86,11.752,99.885,-0.0035714
35.23,368.16,11.751,99.876,-0.0034334
35.46,370.461,11.75,99.867,-0.0041628
35.69,372.761,11.748,99.857,-0.0047577
35.91,375.062,11.747,99.846,-0.0052169
36.14,377.362,11.745,99.833,-0.0054468
36.37,379.662,11.744,99.819,-0.0060931
36.61,381.963,11.742,99.804,-0.0067284
36.84,384.263,11.74,99.787,-0.0077796
37.06,386.564,11.738,99.767,-0.0094322
37.29,388.864,11.735,99.744,-0.0103938
37.53,391.164,11.732,99.719,-0.0118524
37.76,393.465,11.729,99.69,-0.0136522
37.99,395.765,11.725,99.657,-0.0148352
38.21,398.066,11.721,99.621,-0.0165600
38.44,400.366,11.716,99.579,-0.0198993
38.68,402.667,11.71,99.531,-0.0215715
38.91,404.967,11.704,99.478,-0.0241196
39.14,407.267,11.697,99.418,-0.0301629
39.36,409.568,11.688,99.347,-0.0328827
39.59,411.868,11.679,99.266,-0.0380037
39.83,414.169,11.668,99.171,-0.0445513
40.06,416.469,11.655,99.06,-0.0523235
40.29,418.769,11.639,98.931,-0.0614485
40.51,421.07,11.621,98.778,-0.0723035
40.74,423.37,11.6,98.599,-0.0827996
40.98,425.671,11.576,98.391,-0.1025260
41.21,427.971,11.542,98.105,-0.1462070
41.44,430.271,11.498,97.731,-0.1918500
41.66,432.572,11.445,97.281,-0.2186990
41.89,434.872,11.385,96.773,-0.2439130
42.13,437.173,11.31,96.135,-0.3338540
42.36,439.473,11.213,95.307,-0.3995990
42.59,441.774,11.089,94.255,-0.5893680
42.81,444.074,10.91,92.729,-0.7700240
43.04,446.374,10.681,90.789,-0.9893320
43.28,448.675,10.403,88.422,-0.9689680
43.51,450.975,10.105,85.891,-1.37332
43.74,453.276,9.733,82.726,-1.72956
43.97,455.576,9.287,78.941,-1.83363
44.2,457.876,8.79,74.71,-1.83071
44.43,460.177,8.187,69.586,-2.40451
44.66,462.477,7.468,63.479,-3.03707
44.89,464.778,6.626,56.319,-3.48163
45.12,467.078,5.643,47.966,-3.78133
45.35,469.378,4.567,38.822,-3.88104
45.58,471.679,3.46,29.409,-4.19715
45.81,473.979,2.35,19.974,-3.91551
46.03,476.28,1.365,11.605,-3.291
46.26,478.58,0.6120000,5.201,-2.21642
46.49,480.881,0.1880000,1.599,-0.9525620
46.72,483.181,0.0440000,0.3700000,-0.1972250
46.95,485.481,0.0220000,0.1900000,-0.0403269
47.18,487.782,0.0150000,0.1250000,-0.0164224
47.41,490.082,0.0120000,0.1030000,-0.0046974
47.64,492.383,0.0110000,0.0960000,-0.0010852
47.88,494.683,0.0110000,0.0940000,-0.0002619
48.11,496.983,0.0110000,0.0940000,0.0001001
48.34,499.284,0.0110000,0.0950000,0.0013332
48.56,501.584,0.0110000,0.0960000,-0.0039451
48.79,503.885,0.0110000,0.0900000,0.0004715
49.03,506.185,0.0100000,0.0870000,-0.0009177
49.26,508.485,0.0110000,0.0910000,0.0014189
49.49,510.786,0.0110000,0.0920000,-0.0009390
49.71,513.086,0.0110000,0.0910000,-0.0006057
49.94,515.387,0.0110000,0.0900000,0.0005930
50.18,517.687,0.0110000,0.0910000,0.0005017
50.4,519.987,0.0110000,0.0910000,0.0006029
50.63,522.288,0.0110000,0.0920000,0.0005258
50.86,524.588,0.0110000,0.0920000,0.0001726
51.09,526.889,0.0110000,0.0920000,0.0001830
51.32,529.189,0.0110000,0.0920000,0.0000437
51.55,531.49,0.0110000,0.0920000,0.0003916
51.78,533.79,0.0110000,0.0930000,-0.0000535
52.01,536.09,0.0110000,0.0930000,-0.0004078
52.24,538.391,0.0110000,0.0930000,0.0001017
52.47,540.691,0.0110000,0.0930000,0.0003452
52.7,542.992,0.0110000,0.0940000,-0.0000516
52.93,545.292,0.0110000,0.0940000,0.0003302
53.16,547.592,0.0110000,0.0940000,0.0003435
53.39,549.893,0.0110000,0.0940000,-0.0004336
53.62,552.193,0.0110000,0.0950000,0.0001471
53.85,554.494,0.0110000,0.0950000,0.0001725
54.08,556.794,0.0110000,0.0960000,0.0001152
54.31,559.094,0.0110000,0.0960000,0.0003522
54.54,561.395,0.0110000,0.0960000,-0.0000526
54.77,563.695,0.0110000,0.0960000,-0.0000273
55,565.996,0.0110000,0.0960000,0.0001272
55.23,568.296,0.0110000,0.0960000,-0.0001388
55.46,570.597,0.0110000,0.0970000,-0.0001626
55.69,572.897,0.0110000,0.0970000,-0.0000221
55.92,575.197,0.0110000,0.0980000,0.0006674
56.15,577.498,0.0120000,0.0990000,0.0006876
56.38,579.798,0.0120000,0.0990000,0.0002981
56.61,582.099,0.0120000,0.1000000,0.0007075
56.84,584.399,0.0120000,0.1010000,0.0004366
57.07,586.699,0.0120000,0.1020000,0.0004463
57.3,589,0.0120000,0.1030000,0.0002535
57.4,590,0.0120000,0.1030000,0.0003747