Folder: rHDPE_Data_Analysis/R/rHDPE_App/app/www/Output/TGA/Condensed_Data (part 10)

File: Resin8_0__1.csv
0.4300000,30,19.915,100.008,0.0050251
0.8000000,32.3004,19.917,100.019,0.0055046
1.08,34.6008,19.918,100.024,0.0040956
1.35,36.9012,19.919,100.026,-0.0003591
1.6,39.2016,19.919,100.029,0.0010464
1.85,41.5021,19.92,100.031,-0.0000981
2.1,43.8025,19.92,100.033,-0.0000486
2.34,46.1029,19.921,100.035,0.0001927
2.58,48.4033,19.921,100.037,0.0010040
2.82,50.7037,19.921,100.038,0.0000000
3.06,53.0041,19.922,100.04,0.0011793
3.29,55.3045,19.922,100.042,0.0007516
3.53,57.6049,19.922,100.044,0.0009346
3.76,59.9053,19.923,100.045,0.0004191
4,62.2058,19.923,100.046,0.0006957
4.23,64.5062,19.923,100.048,0.0007872
4.46,66.8066,19.923,100.049,0.0004618
4.7,69.107,19.924,100.05,0.0009682
4.93,71.4074,19.924,100.051,0.0003677
5.16,73.7078,19.924,100.052,-0.0000459
5.39,76.0082,19.924,100.054,0.0007341
5.62,78.3086,19.924,100.054,0.0001834
5.85,80.609,19.925,100.055,0.0004123
6.08,82.9094,19.925,100.056,0.0000915
6.31,85.2099,19.925,100.056,-0.0002289
6.54,87.5103,19.925,100.056,0.0003663
6.77,89.8107,19.925,100.057,-0.0003202
7,92.1111,19.925,100.057,-0.0001830
7.23,94.4115,19.925,100.057,-0.0000457
7.46,96.7119,19.925,100.057,-0.0004118
7.69,99.0123,19.925,100.056,0.0000000
7.92,101.313,19.925,100.056,-0.0001373
8.15,103.613,19.925,100.056,-0.0000915
8.38,105.914,19.925,100.056,0.0000915
8.61,108.214,19.925,100.055,-0.0006416
8.84,110.514,19.925,100.055,0.0000914
9.07,112.815,19.924,100.054,-0.0004581
9.3,115.115,19.924,100.053,-0.0006870
9.53,117.416,19.924,100.052,-0.0005958
9.76,119.716,19.924,100.052,-0.0005500
9.99,122.016,19.924,100.051,-0.0000917
10.22,124.317,19.924,100.05,-0.0005497
10.45,126.617,19.923,100.049,-0.0006881
10.68,128.918,19.923,100.048,-0.0001833
10.91,131.218,19.923,100.047,-0.0006403
11.14,133.518,19.923,100.046,-0.0004588
11.37,135.819,19.922,100.044,0.0001374
11.6,138.119,19.922,100.042,-0.0018273
11.83,140.42,19.921,100.038,-0.0024124
12.06,142.72,19.92,100.032,-0.0030372
12.29,145.021,19.919,100.026,-0.0023658
12.52,147.321,19.918,100.021,-0.0015585
12.75,149.621,19.917,100.017,-0.0018445
12.98,151.922,19.916,100.014,-0.0008738
13.21,154.222,19.916,100.011,-0.0006438
13.44,156.523,19.915,100.009,-0.0007805
13.67,158.823,19.915,100.006,-0.0008263
13.9,161.123,19.914,100.004,-0.0010548
14.13,163.424,19.914,100.002,-0.0007791
14.36,165.724,19.914,100,-0.0010539
14.59,168.025,19.913,99.997,-0.0016976
14.82,170.325,19.913,99.995,-0.0010992
15.05,172.625,19.912,99.992,-0.0012370
15.28,174.926,19.912,99.989,-0.0011004
15.51,177.226,19.911,99.987,-0.0012820
15.74,179.527,19.91,99.984,-0.0013723
15.97,181.827,19.91,99.981,-0.0012369
16.2,184.128,19.909,99.977,-0.0017860
16.43,186.428,19.908,99.974,-0.0012363
16.66,188.728,19.908,99.97,-0.0018327
16.89,191.029,19.907,99.967,-0.0022059
17.12,193.329,19.906,99.963,-0.0016007
17.35,195.63,19.905,99.959,-0.0019245
17.58,197.93,19.905,99.954,-0.0018349
17.82,200.23,19.904,99.95,-0.0017857
18.04,202.531,19.903,99.946,-0.0024270
18.28,204.831,19.902,99.942,-0.0017859
18.51,207.132,19.901,99.937,-0.0020608
18.74,209.432,19.9,99.933,-0.0020180
18.97,211.732,19.899,99.928,-0.0020586
19.2,214.033,19.898,99.923,-0.0025234
19.43,216.333,19.897,99.918,-0.0022491
19.66,218.634,19.896,99.913,-0.0021049
19.89,220.934,19.895,99.907,-0.0025226
20.12,223.235,19.894,99.902,-0.0018322
20.35,225.535,19.893,99.897,-0.0027523
20.58,227.835,19.892,99.891,-0.0017407
20.81,230.136,19.891,99.886,-0.0023334
21.04,232.436,19.89,99.881,-0.0027531
21.27,234.737,19.889,99.875,-0.0022894
21.5,237.037,19.888,99.869,-0.0026106
21.73,239.337,19.886,99.863,-0.0025665
21.96,241.638,19.885,99.857,-0.0025121
22.19,243.938,19.884,99.851,-0.0022929
22.42,246.239,19.883,99.845,-0.0022405
22.65,248.539,19.882,99.839,-0.0026106
22.88,250.839,19.88,99.833,-0.0027971
23.11,253.14,19.879,99.827,-0.0025211
23.34,255.44,19.878,99.821,-0.0027909
23.57,257.741,19.877,99.814,-0.0024223
23.8,260.041,19.875,99.808,-0.0028362
24.03,262.341,19.874,99.801,-0.0032979
24.26,264.642,19.873,99.795,-0.0023416
24.49,266.942,19.871,99.788,-0.0032967
24.72,269.243,19.87,99.781,-0.0028404
24.95,271.543,19.869,99.774,-0.0030230
25.18,273.844,19.867,99.767,-0.0032545
25.41,276.144,19.866,99.76,-0.0026556
25.64,278.444,19.864,99.752,-0.0034799
25.87,280.745,19.863,99.745,-0.0033932
26.1,283.045,19.861,99.737,-0.0029332
26.33,285.346,19.86,99.73,-0.0040640
26.56,287.646,19.858,99.722,-0.0029817
26.79,289.946,19.857,99.714,-0.0036678
27.02,292.247,19.855,99.705,-0.0036239
27.25,294.547,19.853,99.697,-0.0035302
27.48,296.848,19.851,99.687,-0.0043618
27.71,299.148,19.85,99.678,-0.0036172
27.94,301.448,19.848,99.67,-0.0039392
28.17,303.749,19.846,99.661,-0.0046330
28.4,306.049,19.844,99.651,-0.0038447
28.63,308.35,19.842,99.641,-0.0045354
28.87,310.65,19.84,99.631,-0.0045288
29.09,312.951,19.838,99.621,-0.0042544
29.33,315.251,19.836,99.611,-0.0050339
29.56,317.551,19.834,99.6,-0.0042148
29.78,319.852,19.832,99.589,-0.0051759
30.02,322.152,19.83,99.579,-0.0050370
30.25,324.453,19.827,99.567,-0.0049936
30.48,326.753,19.825,99.554,-0.0057004
30.71,329.053,19.822,99.542,-0.0053376
30.93,331.354,19.82,99.529,-0.0059633
31.17,333.654,19.817,99.515,-0.0057161
31.39,335.955,19.814,99.502,-0.0061411
31.63,338.255,19.812,99.487,-0.0066452
31.86,340.555,19.808,99.472,-0.0063118
32.08,342.856,19.805,99.457,-0.0069636
32.32,345.156,19.802,99.44,-0.0074995
32.54,347.457,19.799,99.423,-0.0070880
32.78,349.757,19.795,99.406,-0.0078683
33.01,352.058,19.792,99.388,-0.0080615
33.24,354.358,19.788,99.369,-0.0085087
33.47,356.658,19.784,99.35,-0.0079285
33.7,358.959,19.78,99.33,-0.0092406
33.93,361.259,19.776,99.309,-0.0094150
34.16,363.56,19.772,99.287,-0.0096488
34.39,365.86,19.767,99.264,-0.0104186
34.62,368.16,19.762,99.241,-0.0103022
34.85,370.461,19.758,99.216,-0.0114301
35.08,372.761,19.752,99.19,-0.0119897
35.31,375.062,19.747,99.161,-0.0129286
35.54,377.362,19.74,99.13,-0.0140845
35.77,379.662,19.734,99.096,-0.0152428
36,381.963,19.726,99.059,-0.0169049
36.23,384.263,19.718,99.017,-0.0189241
36.46,386.564,19.709,98.971,-0.0213136
36.69,388.864,19.698,98.919,-0.0243679
36.92,391.164,19.686,98.859,-0.0274530
37.15,393.465,19.673,98.792,-0.0312672
37.38,395.765,19.658,98.714,-0.0360550
37.61,398.066,19.64,98.625,-0.0419495
37.84,400.366,19.619,98.522,-0.0478782
38.07,402.667,19.596,98.403,-0.0579770
38.3,404.967,19.565,98.248,-0.0762920
38.53,407.267,19.526,98.054,-0.0922113
38.76,409.568,19.48,97.821,-0.1064430
38.99,411.868,19.427,97.554,-0.1216800
39.22,414.169,19.367,97.257,-0.1358520
39.45,416.469,19.302,96.927,-0.1519200
39.68,418.769,19.231,96.571,-0.1625920
39.91,421.07,19.153,96.18,-0.1821510
40.14,423.37,19.069,95.758,-0.1899230
40.37,425.671,18.979,95.309,-0.2043420
40.6,427.971,18.883,94.825,-0.2155220
40.83,430.271,18.781,94.312,-0.2325950
41.06,432.572,18.666,93.732,-0.2726810
41.29,434.872,18.53,93.054,-0.3188150
41.52,437.173,18.369,92.242,-0.3917350
41.75,439.473,18.166,91.226,-0.5022440
41.98,441.774,17.916,89.966,-0.5920740
42.21,444.074,17.609,88.429,-0.7585680
42.44,446.374,17.234,86.545,-0.8670480
42.67,448.675,16.792,84.322,-1.08373
42.9,450.975,16.253,81.619,-1.33791
43.13,453.276,15.609,78.384,-1.52728
43.36,455.576,14.84,74.521,-1.79252
43.59,457.876,13.894,69.772,-2.28716
43.82,460.177,12.713,63.842,-2.82479
44.05,462.477,11.311,56.8,-3.28125
44.28,464.778,9.677,48.593,-3.74376
44.51,467.078,7.876,39.553,-4.02799
44.74,469.378,6.003,30.144,-4.11396
44.97,471.679,4.186,21.023,-3.81541
45.2,473.979,2.581,12.963,-3.12739
45.43,476.28,1.385,6.957,-2.12636
45.66,478.58,0.6420000,3.223,-1.125
45.88,480.881,0.2970000,1.493,-0.3286800
46.11,483.181,0.1900000,0.9550000,-0.1006710
46.34,485.481,0.1720000,0.8620000,-0.0245528
46.58,487.782,0.1640000,0.8240000,-0.0095131
46.81,490.082,0.1610000,0.8100000,-0.0030345
47.04,492.383,0.1600000,0.8050000,-0.0008921
47.27,494.683,0.1600000,0.8040000,-0.0003857
47.5,496.983,0.1600000,0.8030000,-0.0000600
47.73,499.284,0.1600000,0.8030000,-0.0000599
47.96,501.584,0.1600000,0.8030000,-0.0004577
48.19,503.885,0.1600000,0.8030000,0.0000202
48.41,506.185,0.1600000,0.8030000,0.0000586
48.64,508.485,0.1600000,0.8030000,0.0002565
48.88,510.786,0.1600000,0.8040000,-0.0005107
49.11,513.086,0.1600000,0.8030000,-0.0000892
49.34,515.387,0.1600000,0.8030000,0.0000314
49.56,517.687,0.1600000,0.8030000,0.0003513
49.79,519.987,0.1600000,0.8030000,0.0001592
50.03,522.288,0.1600000,0.8030000,0.0000075
50.26,524.588,0.1600000,0.8030000,0.0001860
50.49,526.889,0.1600000,0.8030000,0.0005545
50.71,529.189,0.1600000,0.8030000,0.0001181
50.94,531.49,0.1600000,0.8040000,0.0001675
51.17,533.79,0.1600000,0.8040000,-0.0000829
51.41,536.09,0.1600000,0.8040000,0.0001821
51.64,538.391,0.1600000,0.8040000,0.0000541
51.86,540.691,0.1600000,0.8040000,-0.0000101
52.09,542.992,0.1600000,0.8030000,-0.0002279
52.33,545.292,0.1600000,0.8030000,-0.0001614
52.56,547.592,0.1600000,0.8030000,0.0003531
52.79,549.893,0.1600000,0.8030000,-0.0003636
53.01,552.193,0.1600000,0.8020000,-0.0003012
53.24,554.494,0.1600000,0.8020000,-0.0003268
53.47,556.794,0.1600000,0.8020000,-0.0001755
53.7,559.094,0.1600000,0.8020000,-0.0000645
53.94,561.395,0.1600000,0.8010000,-0.0002697
54.16,563.695,0.1590000,0.8010000,-0.0000626
54.39,565.996,0.1590000,0.8000000,-0.0002316
54.62,568.296,0.1590000,0.7990000,-0.0004263
54.85,570.597,0.1590000,0.7990000,-0.0003156
55.08,572.897,0.1590000,0.7980000,-0.0002758
55.31,575.197,0.1590000,0.7980000,-0.0005262
55.54,577.498,0.1590000,0.7970000,-0.0000452
55.77,579.798,0.1580000,0.7960000,-0.0004327
56,582.099,0.1580000,0.7940000,-0.0007349
56.23,584.399,0.1580000,0.7920000,-0.0008956
56.46,586.699,0.1570000,0.7910000,-0.0009537
56.69,589,0.1570000,0.7880000,-0.0011664
56.79,590,0.1570000,0.7870000,-0.0009483

File: Resin8_1_.csv
1.21,30,15.55,100.037
1.43,31.9003,15.551,100.04
1.63,33.8007,15.551,100.043
1.84,35.701,15.551,100.046
2.04,37.6014,15.552,100.048
2.24,39.5017,15.552,100.05
2.44,41.402,15.552,100.052
2.63,43.3024,15.553,100.053
2.83,45.2027,15.553,100.055
3.02,47.1031,15.553,100.057
3.22,49.0034,15.553,100.059
3.41,50.9037,15.554,100.061
3.61,52.8041,15.554,100.063
3.8,54.7044,15.554,100.065
3.99,56.6048,15.555,100.067
4.18,58.5051,15.555,100.069
4.38,60.4054,15.555,100.071
4.57,62.3058,15.556,100.073
4.76,64.2061,15.556,100.074
4.95,66.1064,15.556,100.076
5.14,68.0068,15.556,100.078
5.33,69.9071,15.557,100.079
5.52,71.8075,15.557,100.081
5.71,73.7078,15.557,100.082
5.9,75.6081,15.557,100.084
6.1,77.5085,15.558,100.085
6.29,79.4088,15.558,100.087
6.48,81.3092,15.558,100.088
6.66,83.2095,15.558,100.089
6.85,85.1098,15.558,100.09
7.05,87.0102,15.558,100.091
7.24,88.9105,15.559,100.092
7.43,90.8109,15.559,100.093
7.62,92.7112,15.559,100.094
7.81,94.6115,15.559,100.095
8,96.5119,15.559,100.095
8.19,98.4122,15.559,100.095
8.38,100.313,15.559,100.096
8.57,102.213,15.559,100.097
8.76,104.113,15.559,100.097
8.95,106.014,15.559,100.098
9.14,107.914,15.559,100.098
9.33,109.814,15.56,100.098
9.52,111.715,15.56,100.098
9.71,113.615,15.56,100.098
9.9,115.515,15.56,100.098
10.09,117.416,15.56,100.098
10.28,119.316,15.56,100.098
10.47,121.216,15.56,100.098
10.66,123.117,15.559,100.098
10.85,125.017,15.559,100.097
11.04,126.917,15.559,100.097
11.23,128.818,15.559,100.097
11.42,130.718,15.559,100.096
11.61,132.618,15.559,100.096
11.8,134.519,15.559,100.095
11.99,136.419,15.559,100.095
12.18,138.319,15.559,100.094
12.37,140.22,15.559,100.093
12.56,142.12,15.559,100.092
12.75,144.02,15.559,100.092
12.94,145.921,15.558,100.091
13.13,147.821,15.558,100.09
13.32,149.721,15.558,100.089
13.51,151.622,15.558,100.088
13.7,153.522,15.558,100.086
13.89,155.422,15.557,100.083
14.08,157.323,15.556,100.078
14.27,159.223,15.556,100.074
14.46,161.123,15.555,100.07
14.65,163.024,15.555,100.067
14.84,164.924,15.554,100.064
15.03,166.824,15.554,100.062
15.22,168.725,15.554,100.06
15.41,170.625,15.553,100.058
15.6,172.525,15.553,100.056
15.79,174.426,15.553,100.054
15.98,176.326,15.552,100.052
16.17,178.226,15.552,100.051
16.36,180.127,15.552,100.049
16.55,182.027,15.552,100.048
16.74,183.927,15.551,100.046
16.93,185.828,15.551,100.044
17.12,187.728,15.551,100.042
17.31,189.629,15.551,100.04
17.5,191.529,15.55,100.038
17.69,193.429,15.55,100.036
17.88,195.33,15.55,100.034
18.08,197.23,15.549,100.032
18.27,199.13,15.549,100.03
18.46,201.031,15.549,100.027
18.65,202.931,15.548,100.025
18.84,204.831,15.548,100.023
19.03,206.732,15.547,100.02
19.22,208.632,15.547,100.017
19.41,210.532,15.547,100.015
19.61,212.433,15.546,100.012
19.8,214.333,15.546,100.01
19.99,216.233,15.545,100.007
20.18,218.134,15.545,100.003
20.37,220.034,15.544,100
20.56,221.934,15.544,99.997
20.74,223.835,15.543,99.994
20.94,225.735,15.543,99.991
21.13,227.635,15.542,99.987
21.32,229.536,15.542,99.984
21.51,231.436,15.541,99.98
21.69,233.336,15.541,99.976
21.88,235.237,15.54,99.973
22.07,237.137,15.539,99.969
22.26,239.037,15.539,99.965
22.45,240.938,15.538,99.961
22.64,242.838,15.538,99.957
22.83,244.738,15.537,99.953
23.02,246.639,15.536,99.949
23.21,248.539,15.536,99.945
23.41,250.439,15.535,99.941
23.6,252.34,15.535,99.937
23.8,254.24,15.534,99.933
23.98,256.14,15.533,99.929
24.16,258.041,15.533,99.925
24.35,259.941,15.532,99.92
24.54,261.841,15.531,99.916
24.73,263.742,15.531,99.911
24.92,265.642,15.53,99.907
25.12,267.542,15.529,99.903
25.31,269.443,15.528,99.898
25.5,271.343,15.528,99.893
25.69,273.243,15.527,99.889
25.88,275.144,15.526,99.884
26.07,277.044,15.526,99.88
26.26,278.944,15.525,99.875
26.44,280.845,15.524,99.871
26.63,282.745,15.523,99.866
26.82,284.645,15.523,99.861
27.01,286.546,15.522,99.856
27.2,288.446,15.521,99.851
27.39,290.346,15.52,99.846
27.58,292.247,15.519,99.84
27.77,294.147,15.519,99.835
27.96,296.048,15.518,99.83
28.15,297.948,15.517,99.825
28.34,299.848,15.516,99.82
28.53,301.749,15.515,99.814
28.72,303.649,15.515,99.809
28.91,305.549,15.514,99.803
29.1,307.45,15.513,99.798
29.29,309.35,15.512,99.792
29.49,311.25,15.511,99.786
29.68,313.151,15.51,99.781
29.87,315.051,15.509,99.775
30.06,316.951,15.508,99.769
30.25,318.852,15.507,99.763
30.44,320.752,15.507,99.757
30.63,322.652,15.506,99.75
30.82,324.553,15.505,99.744
31.01,326.453,15.504,99.738
31.19,328.353,15.503,99.732
31.38,330.254,15.502,99.725
31.57,332.154,15.501,99.719
31.76,334.054,15.499,99.712
31.95,335.955,15.498,99.704
32.14,337.855,15.497,99.697
32.33,339.755,15.496,99.69
32.53,341.656,15.495,99.683
32.72,343.556,15.494,99.675
32.89,345.456,15.493,99.668
33.08,347.357,15.492,99.661
33.28,349.257,15.49,99.652
33.47,351.157,15.489,99.644
33.66,353.058,15.488,99.636
33.86,354.958,15.486,99.628
34.05,356.858,15.485,99.619
34.24,358.759,15.484,99.61
34.43,360.659,15.482,99.601
34.62,362.559,15.481,99.592
34.81,364.46,15.479,99.583
35,366.36,15.478,99.574
35.19,368.26,15.477,99.564
35.38,370.161,15.475,99.553
35.57,372.061,15.473,99.543
35.76,373.961,15.472,99.533
35.95,375.862,15.47,99.522
36.14,377.762,15.468,99.51
36.33,379.662,15.466,99.499
36.52,381.563,15.464,99.487
36.71,383.463,15.463,99.474
36.9,385.363,15.461,99.461
37.09,387.264,15.458,99.448
37.28,389.164,15.456,99.434
37.47,391.064,15.454,99.419
37.65,392.965,15.452,99.405
37.84,394.865,15.45,99.39
38.03,396.765,15.447,99.375
38.22,398.666,15.445,99.358
38.41,400.566,15.442,99.342
38.6,402.467,15.439,99.325
38.79,404.367,15.437,99.307
38.98,406.267,15.434,99.289
39.17,408.168,15.431,99.271
39.36,410.068,15.428,99.25
39.56,411.968,15.424,99.229
39.75,413.869,15.421,99.206
39.94,415.769,15.417,99.182
40.13,417.669,15.413,99.156
40.32,419.57,15.409,99.128
40.51,421.47,15.404,99.098
40.7,423.37,15.399,99.065
40.89,425.271,15.393,99.029
41.08,427.171,15.387,98.99
41.27,429.071,15.381,98.948
41.46,430.972,15.374,98.902
41.65,432.872,15.366,98.851
41.84,434.772,15.357,98.795
42.03,436.673,15.347,98.733
42.22,438.573,15.336,98.663
42.41,440.473,15.324,98.583
42.6,442.374,15.31,98.493
42.79,444.274,15.294,98.388
42.98,446.174,15.275,98.267
43.17,448.075,15.253,98.124
43.36,449.975,15.226,97.951
43.55,451.875,15.195,97.753
43.74,453.776,15.161,97.536
43.93,455.676,15.125,97.302
44.12,457.576,15.087,97.06
44.31,459.477,15.048,96.806
44.5,461.377,15.007,96.541
44.69,463.277,14.963,96.26
44.88,465.178,14.918,95.969
45.07,467.078,14.869,95.657
45.26,468.978,14.818,95.33
45.45,470.879,14.765,94.985
45.64,472.779,14.708,94.623
45.83,474.679,14.641,94.189
46.01,476.58,14.558,93.658
46.21,478.48,14.461,93.032
46.39,480.38,14.345,92.285
46.58,482.281,14.213,91.434
46.77,484.181,14.052,90.399
46.96,486.081,13.87,89.226
47.15,487.982,13.656,87.855
47.34,489.882,13.401,86.21
47.53,491.782,13.112,84.352
47.72,493.683,12.78,82.219
47.91,495.583,12.389,79.703
48.1,497.483,11.944,76.838
48.29,499.384,11.431,73.537
48.48,501.284,10.841,69.74
48.67,503.184,10.173,65.448
48.86,505.085,9.431,60.673
49.05,506.985,8.601,55.329
49.24,508.886,7.701,49.54
49.43,510.786,6.737,43.338
49.63,512.686,5.712,36.744
49.81,514.587,4.663,29.996
50.01,516.487,3.636,23.392
50.19,518.387,2.666,17.149
50.38,520.288,1.788,11.505
50.57,522.188,1.074,6.911
50.76,524.088,0.5630000,3.62
50.95,525.989,0.2800000,1.799
51.14,527.889,0.1750000,1.123
51.33,529.789,0.1510000,0.9740000
51.53,531.69,0.1420000,0.9160000
51.72,533.59,0.1380000,0.8860000
51.91,535.49,0.1360000,0.8740000
52.1,537.391,0.1350000,0.8690000
52.29,539.291,0.1350000,0.8670000
52.48,541.191,0.1350000,0.8660000
52.67,543.092,0.1350000,0.8650000
52.86,544.992,0.1340000,0.8650000
53.04,546.892,0.1340000,0.8640000
53.23,548.793,0.1340000,0.8640000
53.42,550.693,0.1340000,0.8630000
53.61,552.593,0.1340000,0.8630000
53.81,554.494,0.1340000,0.8630000
53.99,556.394,0.1340000,0.8620000
54.18,558.294,0.1340000,0.8620000
54.37,560.195,0.1340000,0.8610000
54.56,562.095,0.1340000,0.8610000
54.75,563.995,0.1340000,0.8610000
54.93,565.896,0.1340000,0.8610000
55.12,567.796,0.1340000,0.8600000
55.31,569.696,0.1340000,0.8590000
55.51,571.597,0.1330000,0.8580000
55.69,573.497,0.1330000,0.8580000
55.89,575.397,0.1330000,0.8570000
56.08,577.298,0.1330000,0.8570000
56.27,579.198,0.1330000,0.8560000
56.46,581.098,0.1330000,0.8550000
56.65,582.999,0.1330000,0.8540000
56.84,584.899,0.1330000,0.8530000
57.03,586.799,0.1330000,0.8530000
57.22,588.7,0.1320000,0.8520000
57.35,590,0.1320000,0.8510000