Folder: rHDPE_Data_Analysis/R/rHDPE_App/app/www/Output/TGA/Condensed_Data (part 23)

File: Resin21_0__1.csv
0.7300000,30,15.457,100.019,0.0037009
1.02,32.2004,15.458,100.028,0.0009282
1.27,34.4008,15.459,100.032,0.0013460
1.52,36.6012,15.459,100.035,0.0011567
1.76,38.8016,15.46,100.038,0.0001477
1.99,41.002,15.46,100.041,0.0017029
2.22,43.2024,15.461,100.044,0.0018826
2.46,45.4028,15.461,100.047,0.0008154
2.69,47.6031,15.462,100.05,0.0011418
2.91,49.8035,15.462,100.053,0.0010410
3.14,52.0039,15.462,100.055,0.0008940
3.36,54.2043,15.463,100.057,0.0011236
3.59,56.4047,15.463,100.06,0.0015853
3.81,58.6051,15.464,100.063,0.0009765
4.04,60.8055,15.464,100.065,0.0005564
4.26,63.0059,15.464,100.067,0.0013867
4.48,65.2063,15.465,100.069,0.0008768
4.7,67.4067,15.465,100.071,0.0004148
4.92,69.6071,15.465,100.073,0.0011964
5.15,71.8075,15.466,100.075,0.0014701
5.36,74.0079,15.466,100.077,0.0005964
5.59,76.2083,15.466,100.078,0.0012838
5.81,78.4086,15.466,100.08,0.0015582
6.03,80.609,15.467,100.082,0.0005956
6.25,82.8094,15.467,100.083,0.0002747
6.47,85.0098,15.467,100.084,0.0007323
6.69,87.2102,15.467,100.085,0.0010990
6.91,89.4106,15.467,100.086,-0.0005496
7.13,91.611,15.467,100.087,0.0005035
7.35,93.8114,15.468,100.088,0.0004118
7.57,96.0118,15.468,100.089,0.0007776
7.79,98.2122,15.468,100.089,-0.0006861
8.01,100.413,15.468,100.089,0.0000458
8.23,102.613,15.468,100.09,0.0011444
8.45,104.813,15.468,100.09,0.0000916
8.67,107.014,15.468,100.09,0.0000000
8.89,109.214,15.468,100.09,0.0000000
9.11,111.415,15.468,100.09,0.0003663
9.33,113.615,15.468,100.089,-0.0010074
9.55,115.815,15.468,100.089,-0.0003665
9.77,118.016,15.468,100.088,-0.0000459
9.99,120.216,15.467,100.088,0.0000000
10.21,122.417,15.467,100.087,-0.0007333
10.43,124.617,15.467,100.087,0.0000000
10.65,126.817,15.467,100.086,0.0005966
10.87,129.018,15.467,100.086,-0.0005055
11.09,131.218,15.467,100.086,-0.0001381
11.31,133.418,15.467,100.086,-0.0000917
11.53,135.619,15.467,100.086,0.0001826
11.75,137.819,15.467,100.084,-0.0010472
11.97,140.02,15.466,100.081,-0.0020384
12.19,142.22,15.466,100.076,-0.0018010
12.4,144.42,15.465,100.071,-0.0027639
12.62,146.621,15.464,100.065,-0.0030248
12.85,148.821,15.463,100.061,-0.0018923
13.07,151.022,15.463,100.057,-0.0006925
13.29,153.222,15.462,100.054,-0.0014751
13.51,155.422,15.462,100.05,-0.0017483
13.73,157.623,15.461,100.047,-0.0019306
13.95,159.823,15.461,100.043,-0.0020690
14.17,162.024,15.46,100.04,-0.0023410
14.39,164.224,15.459,100.036,-0.0020174
14.61,166.424,15.459,100.032,-0.0015572
14.83,168.625,15.458,100.028,-0.0023358
15.05,170.825,15.458,100.024,-0.0019698
15.27,173.026,15.457,100.019,-0.0019249
15.49,175.226,15.456,100.015,-0.0017420
15.71,177.426,15.456,100.01,-0.0030248
15.93,179.627,15.455,100.006,-0.0023810
16.15,181.827,15.454,100.001,-0.0018773
16.37,184.028,15.453,99.997,-0.0022450
16.59,186.228,15.453,99.991,-0.0025190
16.81,188.428,15.452,99.986,-0.0021528
17.03,190.629,15.451,99.981,-0.0018785
17.26,192.829,15.45,99.976,-0.0027930
17.48,195.029,15.449,99.97,-0.0030214
17.69,197.23,15.448,99.965,-0.0020610
17.92,199.43,15.448,99.959,-0.0021550
18.14,201.631,15.447,99.953,-0.0026116
18.36,203.831,15.446,99.948,-0.0030236
18.58,206.031,15.445,99.942,-0.0023380
18.8,208.232,15.444,99.936,-0.0028894
19.02,210.432,15.443,99.93,-0.0028433
19.24,212.633,15.442,99.924,-0.0017420
19.46,214.833,15.441,99.919,-0.0024748
19.68,217.033,15.44,99.912,-0.0036647
19.9,219.234,15.439,99.906,-0.0031164
20.12,221.434,15.438,99.9,-0.0016496
20.34,223.635,15.437,99.894,-0.0030697
20.56,225.835,15.436,99.887,-0.0034814
20.78,228.035,15.435,99.881,-0.0030220
21,230.236,15.435,99.874,-0.0023803
21.22,232.436,15.433,99.868,-0.0031130
21.44,234.637,15.432,99.861,-0.0029762
21.66,236.837,15.431,99.854,-0.0023814
21.88,239.037,15.43,99.848,-0.0027032
22.1,241.238,15.429,99.841,-0.0032997
22.32,243.438,15.428,99.834,-0.0032991
22.54,245.639,15.427,99.827,-0.0028404
22.76,247.839,15.426,99.82,-0.0038948
22.98,250.039,15.425,99.813,-0.0032066
23.2,252.24,15.424,99.806,-0.0028873
23.42,254.44,15.423,99.799,-0.0030695
23.64,256.64,15.422,99.792,-0.0031605
23.86,258.841,15.421,99.785,-0.0035276
24.08,261.041,15.42,99.778,-0.0025215
24.3,263.242,15.419,99.771,-0.0038073
24.52,265.442,15.417,99.764,-0.0029304
24.74,267.642,15.416,99.756,-0.0028373
24.96,269.843,15.415,99.749,-0.0027457
25.18,272.043,15.414,99.742,-0.0031117
25.4,274.244,15.413,99.734,-0.0040713
25.62,276.444,15.412,99.726,-0.0033436
25.84,278.644,15.41,99.718,-0.0033915
26.06,280.845,15.409,99.71,-0.0038025
26.28,283.045,15.408,99.702,-0.0036205
26.5,285.246,15.407,99.694,-0.0027946
26.72,287.446,15.405,99.686,-0.0041705
26.94,289.646,15.404,99.678,-0.0039887
27.17,291.847,15.403,99.669,-0.0037136
27.38,294.047,15.402,99.661,-0.0034812
27.61,296.248,15.4,99.652,-0.0047186
27.83,298.448,15.399,99.643,-0.0040315
28.04,300.648,15.397,99.635,-0.0035701
28.27,302.849,15.396,99.626,-0.0045288
28.48,305.049,15.395,99.616,-0.0052169
28.71,307.25,15.393,99.607,-0.0039377
28.93,309.45,15.392,99.597,-0.0041629
29.15,311.65,15.39,99.587,-0.0050824
29.37,313.851,15.389,99.577,-0.0055861
29.59,316.051,15.387,99.567,-0.0041644
29.81,318.251,15.385,99.557,-0.0049927
30.03,320.452,15.384,99.546,-0.0050394
30.25,322.652,15.382,99.535,-0.0049451
30.47,324.853,15.38,99.524,-0.0042125
30.69,327.053,15.379,99.513,-0.0052217
30.91,329.253,15.377,99.5,-0.0053571
31.13,331.454,15.375,99.488,-0.0056340
31.35,333.654,15.373,99.475,-0.0056777
31.57,335.855,15.371,99.462,-0.0063221
31.79,338.055,15.369,99.448,-0.0062293
32.01,340.255,15.366,99.433,-0.0061333
32.23,342.456,15.364,99.418,-0.0068186
32.45,344.656,15.362,99.403,-0.0073718
32.67,346.857,15.359,99.386,-0.0077768
32.89,349.057,15.356,99.369,-0.0075979
33.11,351.257,15.354,99.351,-0.0086965
33.33,353.458,15.351,99.332,-0.0092491
33.55,355.658,15.348,99.313,-0.0088402
33.77,357.859,15.345,99.292,-0.0093373
33.99,360.059,15.341,99.271,-0.0101190
34.21,362.259,15.338,99.249,-0.0104339
34.43,364.46,15.334,99.226,-0.0101098
34.65,366.66,15.331,99.202,-0.0108914
34.87,368.861,15.327,99.178,-0.0118089
35.09,371.061,15.323,99.153,-0.0110867
35.31,373.261,15.319,99.128,-0.0109950
35.53,375.462,15.315,99.102,-0.0124610
35.75,377.662,15.311,99.075,-0.0123626
35.97,379.862,15.307,99.048,-0.0119919
36.19,382.063,15.302,99.019,-0.0130256
36.41,384.263,15.298,98.99,-0.0140691
36.63,386.464,15.293,98.96,-0.0138152
36.85,388.664,15.288,98.93,-0.0135457
37.07,390.864,15.284,98.897,-0.0146520
37.29,393.065,15.278,98.865,-0.0157967
37.51,395.265,15.273,98.831,-0.0155678
37.73,397.466,15.268,98.796,-0.0154304
37.95,399.666,15.262,98.76,-0.0172161
38.17,401.866,15.257,98.723,-0.0177591
38.39,404.067,15.251,98.684,-0.0174386
38.61,406.267,15.245,98.645,-0.0178114
38.83,408.468,15.238,98.605,-0.0194705
39.05,410.668,15.232,98.562,-0.0199634
39.27,412.868,15.225,98.517,-0.0209211
39.49,415.069,15.217,98.47,-0.0215320
39.71,417.269,15.21,98.421,-0.0232016
39.93,419.47,15.202,98.369,-0.0242820
40.15,421.67,15.193,98.314,-0.0259835
40.37,423.87,15.184,98.253,-0.0284892
40.59,426.071,15.174,98.188,-0.0303473
40.81,428.271,15.163,98.117,-0.0340804
41.03,430.472,15.15,98.035,-0.0408657
41.25,432.672,15.135,97.939,-0.0457747
41.47,434.872,15.119,97.835,-0.0481492
41.69,437.073,15.102,97.721,-0.0566123
41.91,439.273,15.08,97.582,-0.0738961
42.13,441.473,15.053,97.403,-0.0925438
42.35,443.674,15.014,97.154,-0.1329500
42.57,445.874,14.959,96.797,-0.1875460
42.79,448.075,14.891,96.356,-0.2046790
43.01,450.275,14.805,95.804,-0.2886000
43.23,452.475,14.683,95.014,-0.4371460
43.45,454.676,14.495,93.797,-0.6839160
43.67,456.876,14.23,92.078,-0.9391460
43.89,459.077,13.874,89.776,-1.09855
44.11,461.277,13.473,87.183,-1.33287
44.33,463.477,12.966,83.899,-1.59191
44.55,465.678,12.337,79.828,-1.93849
44.77,467.878,11.587,74.98,-2.31893
44.99,470.079,10.701,69.242,-2.84781
45.21,472.279,9.678,62.627,-3.1583
45.43,474.479,8.53,55.199,-3.38323
45.65,476.68,7.286,47.149,-3.62601
45.87,478.88,5.973,38.65,-3.84449
46.09,481.081,4.656,30.125,-3.81962
46.31,483.281,3.402,22.013,-3.53924
46.53,485.481,2.299,14.875,-2.93017
46.75,487.682,1.403,9.078,-2.2508
46.96,489.882,0.7760000,5.019,-1.43508
47.18,492.083,0.4170000,2.701,-0.6911740
47.4,494.283,0.2730000,1.764,-0.2147820
47.62,496.483,0.2400000,1.553,-0.0365164
47.84,498.684,0.2300000,1.487,-0.0203737
48.06,500.884,0.2250000,1.458,-0.0080498
48.29,503.084,0.2230000,1.446,-0.0037204
48.51,505.285,0.2230000,1.44,-0.0018937
48.73,507.485,0.2220000,1.437,-0.0010474
48.95,509.686,0.2220000,1.436,-0.0007505
49.17,511.886,0.2220000,1.434,-0.0006518
49.39,514.086,0.2220000,1.433,-0.0003492
49.61,516.287,0.2210000,1.432,-0.0002956
49.83,518.487,0.2210000,1.431,-0.0002344
50.04,520.688,0.2210000,1.43,-0.0004549
50.26,522.888,0.2210000,1.43,-0.0004136
50.49,525.088,0.2210000,1.429,-0.0005263
50.71,527.289,0.2210000,1.428,-0.0006210
50.93,529.489,0.2200000,1.426,-0.0002978
51.14,531.69,0.2200000,1.425,-0.0009641
51.36,533.89,0.2200000,1.423,-0.0011313
51.59,536.09,0.2200000,1.421,-0.0014042
51.81,538.291,0.2190000,1.419,-0.0013772
52.02,540.491,0.2190000,1.417,-0.0010523
52.24,542.692,0.2190000,1.415,-0.0006482
52.46,544.892,0.2180000,1.413,-0.0010045
52.68,547.092,0.2180000,1.411,-0.0008047
52.9,549.293,0.2180000,1.409,-0.0007835
53.12,551.493,0.2170000,1.407,-0.0008401
53.34,553.694,0.2170000,1.406,-0.0012304
53.56,555.894,0.2170000,1.403,-0.0010915
53.78,558.094,0.2170000,1.401,-0.0009313
54,560.295,0.2160000,1.399,-0.0010591
54.22,562.495,0.2160000,1.397,-0.0010452
54.44,564.695,0.2160000,1.394,-0.0009301
54.66,566.896,0.2150000,1.392,-0.0010076
54.88,569.096,0.2150000,1.39,-0.0012985
55.1,571.297,0.2140000,1.387,-0.0009597
55.32,573.497,0.2140000,1.384,-0.0011128
55.54,575.697,0.2140000,1.382,-0.0015994
55.76,577.898,0.2130000,1.379,-0.0015263
55.98,580.098,0.2130000,1.376,-0.0011760
56.2,582.299,0.2120000,1.373,-0.0014366
56.42,584.499,0.2120000,1.37,-0.0014495
56.64,586.699,0.2110000,1.366,-0.0016430
56.86,588.9,0.2100000,1.362,-0.0019531
56.97,590,0.2100000,1.36,-0.0021828

File: Resin21_1__1.csv
0.9700000,30,11.383,100.037,0.0062378
1.23,32.2004,11.384,100.045,0.0017285
1.48,34.4008,11.385,100.05,0.0014141
1.72,36.6012,11.385,100.055,0.0027172
1.96,38.8016,11.386,100.059,0.0020976
2.19,41.002,11.386,100.063,0.0022739
2.42,43.2024,11.387,100.067,0.0023061
2.65,45.4028,11.387,100.071,0.0014311
2.88,47.6031,11.388,100.075,0.0015657
3.11,49.8035,11.388,100.079,0.0020762
3.34,52.0039,11.388,100.082,0.0015490
3.56,54.2043,11.389,100.086,0.0012161
3.79,56.4047,11.389,100.09,0.0018644
4.01,58.6051,11.39,100.093,0.0016253
4.23,60.8055,11.39,100.097,0.0018518
4.45,63.0059,11.39,100.099,0.0012488
4.68,65.2063,11.391,100.102,0.0008316
4.9,67.4067,11.391,100.105,0.0008291
5.12,69.6071,11.391,100.108,0.0018383
5.34,71.8075,11.392,100.111,0.0015151
5.56,74.0079,11.392,100.114,0.0010549
5.78,76.2083,11.392,100.116,0.0009163
6,78.4086,11.392,100.118,0.0010525
6.22,80.609,11.393,100.12,0.0008241
6.44,82.8094,11.393,100.121,0.0008698
6.66,85.0098,11.393,100.123,0.0002291
6.88,87.2102,11.393,100.125,0.0004114
7.1,89.4106,11.393,100.126,0.0008714
7.32,91.611,11.394,100.127,0.0007784
7.54,93.8114,11.394,100.128,0.0003202
7.76,96.0118,11.394,100.129,0.0005030
7.98,98.2122,11.394,100.13,0.0003200
8.2,100.413,11.394,100.13,0.0004572
8.42,102.613,11.394,100.131,0.0002743
8.64,104.813,11.394,100.131,0.0004579
8.86,107.014,11.394,100.131,0.0001374
9.08,109.214,11.394,100.131,0.0002748
9.3,111.415,11.394,100.131,0.0003204
9.52,113.615,11.394,100.131,-0.0004579
9.74,115.815,11.394,100.131,-0.0003207
9.96,118.016,11.394,100.131,-0.0000917
10.18,120.216,11.394,100.131,0.0000917
10.4,122.417,11.394,100.131,0.0003671
10.62,124.617,11.394,100.131,-0.0000918
10.84,126.817,11.394,100.131,0.0003213
11.06,129.018,11.394,100.132,0.0000000
11.28,131.218,11.394,100.132,-0.0001833
11.5,133.418,11.394,100.13,-0.0007293
11.72,135.619,11.393,100.126,-0.0022721
11.94,137.819,11.393,100.121,-0.0025392
12.16,140.02,11.392,100.115,-0.0027788
12.38,142.22,11.392,100.11,-0.0019725
12.6,144.42,11.391,100.106,-0.0020686
12.82,146.621,11.391,100.102,-0.0016536
13.04,148.821,11.39,100.098,-0.0012859
13.26,151.022,11.39,100.095,-0.0013802
13.48,153.222,11.389,100.091,-0.0020633
13.7,155.422,11.389,100.087,-0.0024301
13.92,157.623,11.389,100.083,-0.0019703
14.14,159.823,11.388,100.079,-0.0019248
14.36,162.024,11.388,100.075,-0.0022908
14.58,164.224,11.387,100.071,-0.0018790
14.8,166.424,11.387,100.066,-0.0023367
15.02,168.625,11.386,100.061,-0.0025653
15.24,170.825,11.386,100.057,-0.0022004
15.46,173.026,11.385,100.052,-0.0027498
15.68,175.226,11.384,100.046,-0.0029784
15.9,177.426,11.384,100.041,-0.0023367
16.13,179.627,11.383,100.035,-0.0025199
16.35,181.827,11.383,100.03,-0.0025653
16.57,184.028,11.382,100.025,-0.0021998
16.78,186.228,11.381,100.019,-0.0024748
17,188.428,11.381,100.014,-0.0023821
17.23,190.629,11.38,100.008,-0.0028878
17.45,192.829,11.379,100.002,-0.0030697
17.67,195.029,11.379,99.996,-0.0029789
17.89,197.23,11.378,99.99,-0.0030275
18.11,199.43,11.377,99.984,-0.0028440
18.33,201.631,11.377,99.978,-0.0031130
18.55,203.831,11.376,99.972,-0.0031107
18.77,206.031,11.375,99.965,-0.0027938
18.99,208.232,11.374,99.959,-0.0028867
19.21,210.432,11.374,99.952,-0.0033468
19.43,212.633,11.373,99.946,-0.0027963
19.65,214.833,11.372,99.939,-0.0032512
19.87,217.033,11.371,99.932,-0.0030678
20.09,219.234,11.371,99.926,-0.0026108
20.31,221.434,11.37,99.919,-0.0029304
20.53,223.635,11.369,99.912,-0.0027956
20.75,225.835,11.368,99.906,-0.0029798
20.97,228.035,11.368,99.899,-0.0032545
21.19,230.236,11.367,99.891,-0.0027505
21.41,232.436,11.366,99.885,-0.0034331
21.63,234.637,11.365,99.878,-0.0028846
21.85,236.837,11.364,99.871,-0.0034366
22.07,239.037,11.364,99.864,-0.0031130
22.29,241.238,11.363,99.857,-0.0034862
22.51,243.438,11.362,99.85,-0.0032577
22.73,245.639,11.361,99.844,-0.0031631
22.95,247.839,11.36,99.836,-0.0034334
23.17,250.039,11.36,99.829,-0.0035272
23.39,252.24,11.359,99.822,-0.0034382
23.61,254.44,11.358,99.815,-0.0035283
23.83,256.64,11.357,99.807,-0.0035237
24.05,258.841,11.356,99.8,-0.0032033
24.27,261.041,11.356,99.793,-0.0031610
24.49,263.242,11.355,99.786,-0.0032539
24.72,265.442,11.354,99.778,-0.0032069
24.93,267.642,11.353,99.77,-0.0032051
25.16,269.843,11.352,99.763,-0.0037067
25.38,272.043,11.351,99.755,-0.0032522
25.59,274.244,11.35,99.747,-0.0030237
25.82,276.444,11.349,99.74,-0.0032080
26.03,278.644,11.349,99.731,-0.0033901
26.26,280.845,11.348,99.723,-0.0034799
26.48,283.045,11.347,99.715,-0.0034830
26.69,285.246,11.346,99.706,-0.0040345
26.92,287.446,11.345,99.698,-0.0038017
27.14,289.646,11.344,99.689,-0.0043017
27.36,291.847,11.343,99.681,-0.0035695
27.58,294.047,11.342,99.672,-0.0040788
27.8,296.248,11.341,99.663,-0.0040781
28.02,298.448,11.34,99.654,-0.0039356
28.24,300.648,11.339,99.645,-0.0040277
28.46,302.849,11.338,99.636,-0.0043956
28.68,305.049,11.337,99.626,-0.0041269
28.9,307.25,11.335,99.617,-0.0044905
29.12,309.45,11.334,99.607,-0.0045762
29.34,311.65,11.333,99.597,-0.0047161
29.56,313.851,11.332,99.587,-0.0048535
29.78,316.051,11.331,99.576,-0.0049908
30,318.251,11.33,99.566,-0.0048993
30.22,320.452,11.328,99.555,-0.0048561
30.44,322.652,11.327,99.544,-0.0051758
30.66,324.853,11.326,99.533,-0.0055424
30.88,327.053,11.325,99.521,-0.0056777
31.1,329.253,11.323,99.509,-0.0061322
31.32,331.454,11.322,99.497,-0.0061321
31.54,333.654,11.32,99.484,-0.0065054
31.76,335.855,11.319,99.47,-0.0064138
31.98,338.055,11.317,99.456,-0.0066874
32.2,340.255,11.315,99.441,-0.0065476
32.42,342.456,11.314,99.425,-0.0070016
32.64,344.656,11.312,99.409,-0.0074216
32.86,346.857,11.31,99.393,-0.0080128
33.08,349.057,11.308,99.375,-0.0080128
33.3,351.257,11.306,99.357,-0.0086002
33.52,353.458,11.304,99.339,-0.0089254
33.74,355.658,11.302,99.319,-0.0090201
33.96,357.859,11.299,99.299,-0.0092863
34.18,360.059,11.297,99.278,-0.0097564
34.4,362.259,11.295,99.257,-0.0098864
34.62,364.46,11.292,99.235,-0.0104300
34.84,366.66,11.29,99.213,-0.0099872
35.06,368.861,11.287,99.19,-0.0099450
35.28,371.061,11.284,99.168,-0.0104911
35.5,373.261,11.282,99.145,-0.0104625
35.72,375.462,11.279,99.122,-0.0106285
35.94,377.662,11.276,99.098,-0.0111355
36.16,379.862,11.274,99.075,-0.0109489
36.38,382.063,11.271,99.051,-0.0107442
36.6,384.263,11.268,99.027,-0.0106168
36.82,386.464,11.266,99.003,-0.0110908
37.04,388.664,11.263,98.979,-0.0113553
37.26,390.864,11.26,98.955,-0.0106725
37.48,393.065,11.257,98.931,-0.0107601
37.7,395.265,11.255,98.906,-0.0107084
37.92,397.466,11.252,98.881,-0.0119462
38.14,399.666,11.249,98.855,-0.0114469
38.36,401.866,11.246,98.829,-0.0116258
38.58,404.067,11.243,98.803,-0.0119048
38.8,406.267,11.24,98.776,-0.0125458
39.02,408.468,11.237,98.748,-0.0127220
39.24,410.668,11.233,98.719,-0.0130808
39.46,412.868,11.23,98.689,-0.0141863
39.68,415.069,11.226,98.657,-0.0149725
39.9,417.269,11.222,98.624,-0.0158337
40.12,419.47,11.218,98.587,-0.0177428
40.34,421.67,11.214,98.547,-0.0192872
40.56,423.87,11.209,98.502,-0.0215358
40.78,426.071,11.203,98.452,-0.0249176
41,428.271,11.196,98.394,-0.0274931
41.22,430.472,11.189,98.329,-0.0313701
41.44,432.672,11.181,98.256,-0.0356227
41.66,434.872,11.171,98.171,-0.0423535
41.88,437.073,11.159,98.066,-0.0533589
42.1,439.273,11.144,97.935,-0.0661697
42.32,441.473,11.125,97.767,-0.0918574
42.54,443.674,11.09,97.457,-0.1877540
42.76,445.874,11.035,96.972,-0.2472510
42.98,448.075,10.967,96.379,-0.3038920
43.2,450.275,10.864,95.474,-0.5435090
43.42,452.475,10.688,93.923,-0.8278970
43.64,454.676,10.459,91.914,-1.02386
43.86,456.876,10.186,89.519,-1.16896
44.08,459.077,9.823,86.321,-1.7115
44.3,461.277,9.342,82.096,-2.09963
44.52,463.477,8.758,76.963,-2.66844
44.74,465.678,8.042,70.675,-3.16248
44.96,467.878,7.206,63.326,-3.57763
45.18,470.079,6.246,54.89,-3.96651
45.4,472.279,5.208,45.77,-4.24806
45.62,474.479,4.121,36.217,-4.27543
45.84,476.68,3.061,26.9,-4.10805
46.06,478.88,2.084,18.318,-3.56613
46.28,481.081,1.285,11.289,-2.81761
46.5,483.281,0.7030000,6.175,-1.83329
46.71,485.481,0.3640000,3.202,-0.8871360
46.93,487.682,0.2140000,1.881,-0.3190060
47.15,489.882,0.1670000,1.468,-0.0736209
47.38,492.083,0.1530000,1.346,-0.0448598
47.6,494.283,0.1460000,1.279,-0.0188979
47.82,496.483,0.1430000,1.253,-0.0072163
48.04,498.684,0.1420000,1.244,-0.0028399
48.26,500.884,0.1410000,1.24,-0.0012808
48.48,503.084,0.1410000,1.238,-0.0003818
48.7,505.285,0.1410000,1.238,-0.0003794
48.92,507.485,0.1410000,1.237,-0.0001494
49.14,509.686,0.1410000,1.237,-0.0002422
49.36,511.886,0.1410000,1.236,-0.0004563
49.58,514.086,0.1410000,1.236,-0.0002092
49.8,516.287,0.1410000,1.236,-0.0001980
50.02,518.487,0.1410000,1.236,-0.0001163
50.24,520.688,0.1410000,1.235,-0.0005141
50.46,522.888,0.1400000,1.235,-0.0001650
50.68,525.088,0.1400000,1.234,-0.0006827
50.9,527.289,0.1400000,1.233,-0.0005221
51.12,529.489,0.1400000,1.232,-0.0004028
51.34,531.69,0.1400000,1.231,-0.0004738
51.56,533.89,0.1400000,1.23,-0.0009090
51.78,536.09,0.1400000,1.229,-0.0006525
52,538.291,0.1400000,1.228,-0.0007741
52.22,540.491,0.1400000,1.227,-0.0002716
52.44,542.692,0.1400000,1.226,-0.0002039
52.66,544.892,0.1390000,1.225,-0.0003258
52.88,547.092,0.1390000,1.224,-0.0004334
53.1,549.293,0.1390000,1.223,-0.0004042
53.32,551.493,0.1390000,1.222,-0.0004348
53.54,553.694,0.1390000,1.221,-0.0003771
53.76,555.894,0.1390000,1.22,-0.0008149
53.98,558.094,0.1390000,1.219,-0.0005391
54.2,560.295,0.1390000,1.218,-0.0002079
54.42,562.495,0.1380000,1.217,-0.0004242
54.64,564.695,0.1380000,1.216,-0.0001552
54.86,566.896,0.1380000,1.215,-0.0005683
55.08,569.096,0.1380000,1.214,-0.0002955
55.3,571.297,0.1380000,1.212,-0.0007898
55.52,573.497,0.1380000,1.211,-0.0008448
55.74,575.697,0.1380000,1.21,-0.0010598
55.96,577.898,0.1370000,1.208,-0.0007462
56.18,580.098,0.1370000,1.206,-0.0010904
56.4,582.299,0.1370000,1.203,-0.0014293
56.62,584.499,0.1370000,1.2,-0.0015622
56.84,586.699,0.1360000,1.197,-0.0018660
57.06,588.9,0.1360000,1.193,-0.0022427
57.16,590,0.1360000,1.191,-0.0018709