Folder: rHDPE_Data_Analysis/R/rHDPE_App/app/www/Output/TGA/Condensed_Data (part 8)

File: Resin6_0__1.csv
1.31,30,14.027,100.043,-0.0002561
1.56,32.3004,14.027,100.045,0.0020893
1.81,34.6008,14.028,100.047,0.0001467
2.05,36.9012,14.028,100.049,0.0011127
2.29,39.2016,14.028,100.052,0.0007218
2.54,41.5021,14.029,100.054,0.0011474
2.78,43.8025,14.029,100.056,0.0009498
3.01,46.1029,14.029,100.059,0.0014162
3.25,48.4033,14.03,100.062,0.0011743
3.49,50.7037,14.03,100.064,0.0013093
3.72,53.0041,14.03,100.067,0.0017224
3.95,55.3045,14.031,100.069,0.0008816
4.19,57.6049,14.031,100.072,0.0012501
4.42,59.9053,14.032,100.074,0.0007851
4.65,62.2058,14.032,100.076,0.0004148
4.88,64.5062,14.032,100.078,0.0013339
5.11,66.8066,14.032,100.08,0.0003675
5.34,69.107,14.033,100.082,0.0011934
5.57,71.4074,14.033,100.083,0.0001376
5.8,73.7078,14.033,100.085,0.0009164
6.04,76.0082,14.033,100.087,0.0009158
6.26,78.3086,14.033,100.088,0.0003662
6.49,80.609,14.034,100.089,0.0009605
6.72,82.9094,14.034,100.091,0.0000458
6.95,85.2099,14.034,100.091,0.0007314
7.19,87.5103,14.034,100.093,0.0003654
7.41,89.8107,14.034,100.093,0.0001832
7.65,92.1111,14.034,100.095,0.0008233
7.88,94.4115,14.034,100.095,0.0000457
8.1,96.7119,14.034,100.095,0.0010076
8.34,99.0123,14.035,100.096,0.0002287
8.56,101.313,14.035,100.096,0.0000457
8.79,103.613,14.035,100.097,0.0009601
9.02,105.914,14.035,100.097,-0.0004127
9.25,108.214,14.035,100.097,0.0006874
9.48,110.514,14.035,100.097,-0.0004588
9.72,112.815,14.035,100.097,0.0005950
9.95,115.115,14.035,100.097,0.0003665
10.18,117.416,14.035,100.097,-0.0003205
10.4,119.716,14.035,100.096,0.0005956
10.63,122.016,14.035,100.096,-0.0007335
10.87,124.317,14.035,100.096,-0.0003207
11.1,126.617,14.035,100.096,0.0003667
11.33,128.918,14.035,100.096,-0.0002751
11.56,131.218,14.035,100.096,0.0007319
11.79,133.518,14.035,100.096,-0.0009631
12.02,135.819,14.035,100.095,0.0000000
12.25,138.119,14.034,100.094,-0.0011870
12.48,140.42,14.034,100.092,-0.0017356
12.7,142.72,14.033,100.088,-0.0015041
12.93,145.021,14.033,100.083,-0.0029634
13.17,147.321,14.032,100.079,-0.0010982
13.4,149.621,14.032,100.076,-0.0014250
13.63,151.922,14.031,100.073,-0.0012856
13.86,154.222,14.031,100.07,-0.0010558
14.09,156.523,14.031,100.067,-0.0018349
14.32,158.823,14.03,100.064,-0.0005051
14.55,161.123,14.03,100.061,-0.0015554
14.78,163.424,14.029,100.058,-0.0014656
15.01,165.724,14.029,100.055,-0.0011476
15.24,168.025,14.028,100.051,-0.0024301
15.47,170.325,14.028,100.047,-0.0008239
15.7,172.625,14.027,100.043,-0.0026135
15.93,174.926,14.027,100.039,-0.0017895
16.16,177.226,14.026,100.035,-0.0019715
16.39,179.527,14.025,100.03,-0.0022879
16.62,181.827,14.025,100.025,-0.0017852
16.85,184.128,14.024,100.02,-0.0026099
17.08,186.428,14.023,100.014,-0.0016494
17.31,188.728,14.022,100.009,-0.0028427
17.54,191.029,14.022,100.004,-0.0022422
17.77,193.329,14.021,99.998,-0.0018350
18,195.63,14.02,99.992,-0.0030678
18.23,197.93,14.019,99.986,-0.0023373
18.46,200.23,14.018,99.98,-0.0034419
18.69,202.531,14.017,99.974,-0.0021068
18.92,204.831,14.017,99.968,-0.0027465
19.15,207.132,14.016,99.961,-0.0031599
19.38,209.432,14.015,99.954,-0.0020187
19.62,211.732,14.014,99.948,-0.0032557
19.84,214.033,14.013,99.941,-0.0032458
20.08,216.333,14.012,99.934,-0.0025206
20.31,218.634,14.011,99.926,-0.0033422
20.53,220.934,14.01,99.919,-0.0027015
20.77,223.235,14.009,99.912,-0.0037535
20.99,225.535,14.008,99.905,-0.0028427
21.23,227.835,14.007,99.897,-0.0032988
21.46,230.136,14.006,99.889,-0.0036660
21.68,232.436,14.005,99.882,-0.0026588
21.92,234.737,14.003,99.874,-0.0040740
22.15,237.037,14.002,99.866,-0.0032089
22.38,239.337,14.001,99.859,-0.0039879
22.61,241.638,14,99.851,-0.0034789
22.84,243.938,13.999,99.843,-0.0031607
23.07,246.239,13.998,99.835,-0.0039352
23.3,248.539,13.997,99.827,-0.0032101
23.53,250.839,13.996,99.819,-0.0042614
23.76,253.14,13.995,99.811,-0.0037064
23.99,255.44,13.993,99.803,-0.0028786
24.22,257.741,13.992,99.794,-0.0044536
24.45,260.041,13.991,99.786,-0.0030220
24.68,262.341,13.99,99.778,-0.0041171
24.91,264.642,13.989,99.769,-0.0043916
25.14,266.942,13.988,99.76,-0.0035800
25.37,269.243,13.986,99.751,-0.0041231
25.6,271.543,13.985,99.743,-0.0034422
25.83,273.844,13.984,99.734,-0.0041704
26.06,276.144,13.983,99.725,-0.0043514
26.29,278.444,13.981,99.717,-0.0038039
26.52,280.745,13.98,99.708,-0.0047619
26.75,283.045,13.979,99.699,-0.0038991
26.98,285.346,13.978,99.69,-0.0040789
27.21,287.646,13.976,99.68,-0.0042125
27.44,289.946,13.975,99.671,-0.0034378
27.67,292.247,13.974,99.662,-0.0043458
27.9,294.547,13.972,99.652,-0.0037245
28.13,296.848,13.971,99.643,-0.0043442
28.36,299.148,13.97,99.634,-0.0042178
28.59,301.448,13.968,99.624,-0.0041232
28.82,303.749,13.967,99.614,-0.0045396
29.05,306.049,13.966,99.604,-0.0036603
29.28,308.35,13.964,99.594,-0.0047161
29.51,310.65,13.963,99.584,-0.0043040
29.74,312.951,13.961,99.574,-0.0041843
29.97,315.251,13.96,99.564,-0.0043907
30.2,317.551,13.959,99.554,-0.0038482
30.43,319.852,13.957,99.544,-0.0050366
30.66,322.152,13.956,99.533,-0.0046262
30.89,324.453,13.954,99.523,-0.0043056
31.12,326.753,13.953,99.512,-0.0048499
31.35,329.053,13.951,99.502,-0.0039255
31.58,331.354,13.95,99.491,-0.0049451
31.81,333.654,13.948,99.48,-0.0045914
32.04,335.955,13.947,99.469,-0.0047532
32.27,338.255,13.945,99.456,-0.0052656
32.5,340.555,13.943,99.445,-0.0048957
32.73,342.856,13.942,99.432,-0.0053084
32.96,345.156,13.94,99.42,-0.0049945
33.19,347.457,13.938,99.407,-0.0058086
33.42,349.757,13.936,99.394,-0.0056828
33.65,352.058,13.934,99.38,-0.0055342
33.88,354.358,13.932,99.366,-0.0067246
34.11,356.658,13.93,99.351,-0.0060931
34.34,358.959,13.928,99.336,-0.0072736
34.57,361.259,13.926,99.32,-0.0067915
34.8,363.56,13.923,99.303,-0.0074202
35.03,365.86,13.921,99.286,-0.0070906
35.26,368.16,13.918,99.268,-0.0052226
35.49,370.461,13.916,99.247,-0.0090626
35.73,372.761,13.912,99.225,-0.0096718
35.96,375.062,13.909,99.202,-0.0105007
36.19,377.362,13.906,99.177,-0.0116959
36.41,379.662,13.902,99.15,-0.0122096
36.64,381.963,13.898,99.12,-0.0141207
36.88,384.263,13.893,99.087,-0.0148858
37.11,386.564,13.888,99.051,-0.0170277
37.34,388.864,13.882,99.01,-0.0180176
37.56,391.164,13.876,98.966,-0.0197333
37.79,393.465,13.869,98.918,-0.0226273
38.03,395.765,13.862,98.863,-0.0252381
38.26,398.066,13.853,98.801,-0.0284184
38.49,400.366,13.843,98.732,-0.0313358
38.71,402.667,13.833,98.656,-0.0351183
38.94,404.967,13.821,98.57,-0.0391825
39.18,407.267,13.807,98.475,-0.0436217
39.41,409.568,13.792,98.366,-0.0504390
39.63,411.868,13.775,98.244,-0.0570762
39.86,414.169,13.755,98.102,-0.0658570
40.09,416.469,13.732,97.941,-0.0761665
40.32,418.769,13.704,97.736,-0.1007500
40.55,421.07,13.667,97.472,-0.1296410
40.79,423.37,13.623,97.16,-0.1432230
41.01,425.671,13.575,96.817,-0.1550790
41.24,427.971,13.519,96.42,-0.1920190
41.48,430.271,13.456,95.969,-0.2156180
41.71,432.572,13.376,95.396,-0.2804260
41.94,434.872,13.276,94.688,-0.3445570
42.16,437.173,13.154,93.817,-0.4410600
42.39,439.473,13.016,92.831,-0.4485870
42.63,441.774,12.843,91.597,-0.6503660
42.86,444.074,12.628,90.066,-0.7602950
43.09,446.374,12.374,88.252,-0.9204020
43.31,448.675,12.037,85.848,-1.1951
43.54,450.975,11.629,82.939,-1.37424
43.78,453.276,11.15,79.525,-1.52803
44.01,455.576,10.588,75.515,-1.88743
44.24,457.876,9.933,70.844,-2.1087
44.46,460.177,9.176,65.441,-2.41708
44.7,462.477,8.275,59.017,-2.99714
44.93,464.778,7.212,51.44,-3.64991
45.16,467.078,5.932,42.304,-3.77928
45.39,469.378,4.652,33.177,-3.91902
45.62,471.679,3.357,23.942,-3.92921
45.85,473.979,2.141,15.269,-3.65103
46.08,476.28,1.16,8.272,-2.56795
46.3,478.58,0.4850000,3.458,-1.52342
46.53,480.881,0.1430000,1.023,-0.5896850
46.76,483.181,0.0460000,0.3260000,-0.0986609
46.99,485.481,0.0320000,0.2260000,-0.0287021
47.22,487.782,0.0260000,0.1850000,-0.0098966
47.45,490.082,0.0240000,0.1710000,-0.0029325
47.69,492.383,0.0230000,0.1670000,-0.0004702
47.91,494.683,0.0230000,0.1660000,-0.0002000
48.14,496.983,0.0230000,0.1660000,-0.0000557
48.38,499.284,0.0230000,0.1660000,-0.0000501
48.61,501.584,0.0230000,0.1650000,-0.0000148
48.83,503.885,0.0230000,0.1660000,-0.0001065
49.06,506.185,0.0230000,0.1650000,-0.0002644
49.29,508.485,0.0230000,0.1670000,0.0006468
49.52,510.786,0.0240000,0.1690000,-0.0012229
49.75,513.086,0.0230000,0.1670000,-0.0010398
49.98,515.387,0.0230000,0.1660000,-0.0006304
50.21,517.687,0.0240000,0.1730000,0.0007213
50.44,519.987,0.0240000,0.1720000,0.0001081
50.67,522.288,0.0240000,0.1720000,0.0000895
50.9,524.588,0.0240000,0.1720000,-0.0001851
51.13,526.889,0.0240000,0.1710000,-0.0003237
51.36,529.189,0.0240000,0.1710000,-0.0004282
51.59,531.49,0.0240000,0.1710000,0.0001967
51.82,533.79,0.0240000,0.1710000,0.0000610
52.05,536.09,0.0240000,0.1700000,0.0003001
52.28,538.391,0.0240000,0.1700000,0.0000410
52.51,540.691,0.0240000,0.1700000,0.0001217
52.74,542.992,0.0240000,0.1700000,0.0000790
52.97,545.292,0.0240000,0.1690000,0.0000698
53.2,547.592,0.0240000,0.1690000,-0.0000235
53.43,549.893,0.0240000,0.1690000,-0.0001428
53.66,552.193,0.0240000,0.1690000,-0.0000745
53.89,554.494,0.0240000,0.1690000,0.0002157
54.12,556.794,0.0240000,0.1680000,0.0000380
54.35,559.094,0.0240000,0.1680000,0.0002934
54.58,561.395,0.0240000,0.1680000,-0.0000317
54.81,563.695,0.0240000,0.1680000,0.0005062
55.04,565.996,0.0240000,0.1680000,0.0001994
55.27,568.296,0.0240000,0.1680000,0.0000281
55.5,570.597,0.0240000,0.1680000,0.0000984
55.73,572.897,0.0240000,0.1680000,-0.0001260
55.96,575.197,0.0240000,0.1680000,0.0001800
56.19,577.498,0.0240000,0.1680000,0.0005810
56.42,579.798,0.0240000,0.1680000,-0.0004703
56.65,582.099,0.0240000,0.1680000,-0.0002835
56.88,584.399,0.0230000,0.1670000,-0.0005018
57.11,586.699,0.0230000,0.1670000,-0.0002795
57.34,589,0.0230000,0.1660000,-0.0002153
57.44,590,0.0230000,0.1660000,-0.0003041

File: Resin6_1_.csv
1.29,30,12.04,100.049,0.0035104
1.54,32.2004,12.041,100.054,0.0033302
1.78,34.4008,12.041,100.059,0.0009824
2.01,36.6012,12.042,100.062,0.0020609
2.24,38.8016,12.042,100.065,0.0021027
2.47,41.002,12.042,100.068,0.0011927
2.7,43.2024,12.043,100.07,0.0012674
2.93,45.4028,12.043,100.073,0.0010161
3.15,47.6031,12.043,100.075,0.0011314
3.37,49.8035,12.044,100.078,0.0010830
3.6,52.0039,12.044,100.081,0.0018696
3.82,54.2043,12.044,100.084,0.0017732
4.05,56.4047,12.045,100.088,0.0013477
4.27,58.6051,12.045,100.091,0.0018198
4.49,60.8055,12.046,100.094,0.0016161
4.71,63.0059,12.046,100.097,0.0010013
4.93,65.2063,12.046,100.099,0.0015214
5.15,67.4067,12.046,100.101,0.0016200
5.38,69.6071,12.047,100.104,0.0016044
5.6,71.8075,12.047,100.107,0.0010135
5.82,74.0079,12.047,100.109,0.0009247
6.04,76.2083,12.048,100.112,0.0010257
6.25,78.4086,12.048,100.114,0.0010169
6.48,80.609,12.048,100.117,0.0009609
6.7,82.8094,12.049,100.119,0.0009193
6.92,85.0098,12.049,100.121,0.0010148
7.14,87.2102,12.049,100.123,0.0010240
7.36,89.4106,12.049,100.125,0.0010526
7.58,91.611,12.05,100.128,0.0004563
7.8,93.8114,12.05,100.129,0.0005551
8.02,96.0118,12.05,100.13,0.0006425
8.24,98.2122,12.05,100.132,0.0008889
8.46,100.413,12.05,100.133,0.0004330
8.68,102.613,12.05,100.134,0.0002990
8.9,104.813,12.051,100.135,0.0005628
9.13,107.014,12.051,100.136,0.0001461
9.35,109.214,12.051,100.138,0.0007448
9.57,111.415,12.051,100.139,0.0009384
9.78,113.615,12.051,100.14,0.0003282
10,115.815,12.051,100.14,0.0001393
10.22,118.016,12.051,100.141,0.0000490
10.44,120.216,12.051,100.141,0.0000904
10.66,122.417,12.051,100.142,-0.0000922
10.88,124.617,12.051,100.142,0.0001376
11.1,126.817,12.051,100.142,0.0000000
11.33,129.018,12.051,100.143,0.0001248
11.55,131.218,12.051,100.144,-0.0002262
11.77,133.418,12.051,100.144,-0.0001051
11.98,135.619,12.051,100.144,-0.0001388
12.21,137.819,12.052,100.144,0.0001395
12.43,140.02,12.052,100.144,0.0000927
12.65,142.22,12.052,100.145,0.0005452
12.87,144.42,12.052,100.145,0.0003757
13.09,146.621,12.052,100.145,0.0001721
13.3,148.821,12.052,100.145,-0.0005001
13.52,151.022,12.052,100.145,-0.0000532
13.74,153.222,12.052,100.145,-0.0005605
13.96,155.422,12.052,100.144,-0.0006223
14.18,157.623,12.051,100.142,-0.0012997
14.4,159.823,12.051,100.138,-0.0017865
14.62,162.024,12.05,100.133,-0.0019682
14.84,164.224,12.05,100.129,-0.0020058
15.05,166.424,12.049,100.125,-0.0016188
15.28,168.625,12.049,100.122,-0.0013076
15.5,170.825,12.049,100.12,-0.0010377
15.72,173.026,12.048,100.118,-0.0010930
15.94,175.226,12.048,100.115,-0.0013865
16.17,177.426,12.048,100.112,-0.0015197
16.39,179.627,12.047,100.109,-0.0015783
16.61,181.827,12.047,100.107,-0.0015233
16.83,184.028,12.047,100.104,-0.0015164
17.05,186.228,12.046,100.101,-0.0013072
17.27,188.428,12.046,100.097,-0.0013636
17.49,190.629,12.046,100.094,-0.0011623
17.71,192.829,12.045,100.091,-0.0021095
17.93,195.029,12.045,100.087,-0.0017489
18.15,197.23,12.044,100.083,-0.0012326
18.38,199.43,12.044,100.079,-0.0022456
18.6,201.631,12.043,100.075,-0.0020452
18.81,203.831,12.043,100.071,-0.0025453
19.03,206.031,12.042,100.066,-0.0020852
19.25,208.232,12.042,100.061,-0.0023860
19.47,210.432,12.041,100.056,-0.0028046
19.69,212.633,12.04,100.052,-0.0023448
19.91,214.833,12.04,100.047,-0.0021860
20.13,217.033,12.039,100.042,-0.0019358
20.33,219.234,12.039,100.036,-0.0026676
20.55,221.434,12.038,100.031,-0.0013391
20.78,223.635,12.037,100.026,-0.0026568
21,225.835,12.037,100.02,-0.0021533
21.22,228.035,12.036,100.015,-0.0023594
21.45,230.236,12.035,100.009,-0.0024571
21.66,232.436,12.035,100.004,-0.0024145
21.88,234.637,12.034,99.998,-0.0029446
22.11,236.837,12.033,99.992,-0.0027060
22.33,239.037,12.033,99.986,-0.0023422
22.56,241.238,12.032,99.98,-0.0028129
22.78,243.438,12.031,99.975,-0.0024023
23,245.639,12.03,99.969,-0.0025710
23.22,247.839,12.03,99.963,-0.0025571
23.44,250.039,12.029,99.957,-0.0026116
23.66,252.24,12.028,99.951,-0.0023987
23.88,254.44,12.028,99.945,-0.0026373
24.1,256.64,12.027,99.939,-0.0028331
24.32,258.841,12.026,99.932,-0.0023535
24.53,261.041,12.025,99.926,-0.0029124
24.76,263.242,12.025,99.92,-0.0031751
24.98,265.442,12.024,99.913,-0.0031150
25.2,267.642,12.023,99.907,-0.0023973
25.42,269.843,12.022,99.901,-0.0028604
25.63,272.043,12.021,99.894,-0.0027089
25.85,274.244,12.021,99.888,-0.0030004
26.08,276.444,12.02,99.882,-0.0026585
26.29,278.644,12.019,99.875,-0.0035694
26.52,280.845,12.018,99.868,-0.0028684
26.73,283.045,12.018,99.861,-0.0037233
26.95,285.246,12.017,99.855,-0.0032138
27.17,287.446,12.016,99.848,-0.0029069
27.4,289.646,12.015,99.841,-0.0026037
27.61,291.847,12.014,99.834,-0.0031421
27.83,294.047,12.013,99.827,-0.0031573
28.06,296.248,12.013,99.82,-0.0034470
28.27,298.448,12.012,99.813,-0.0034691
28.49,300.648,12.011,99.806,-0.0039088
28.71,302.849,12.01,99.799,-0.0029685
28.93,305.049,12.009,99.792,-0.0026569
29.16,307.25,12.008,99.784,-0.0032106
29.39,309.45,12.007,99.777,-0.0036661
29.6,311.65,12.006,99.769,-0.0035139
29.83,313.851,12.006,99.762,-0.0036228
30.04,316.051,12.005,99.754,-0.0037426
30.26,318.251,12.004,99.747,-0.0037048
30.48,320.452,12.003,99.739,-0.0036305
30.7,322.652,12.002,99.732,-0.0035464
30.92,324.853,12.001,99.724,-0.0036368
31.15,327.053,12,99.716,-0.0035769
31.36,329.253,11.999,99.709,-0.0032097
31.58,331.454,11.998,99.702,-0.0028211
31.79,333.654,11.997,99.694,-0.0038848
32.02,335.855,11.996,99.685,-0.0039393
32.24,338.055,11.995,99.677,-0.0038102
32.45,340.255,11.994,99.669,-0.0035369
32.67,342.456,11.993,99.661,-0.0035891
32.89,344.656,11.992,99.652,-0.0034594
33.11,346.857,11.991,99.644,-0.0031435
33.33,349.057,11.99,99.636,-0.0032767
33.56,351.257,11.989,99.627,-0.0039654
33.78,353.458,11.988,99.619,-0.0042881
34,355.658,11.987,99.61,-0.0037851
34.22,357.859,11.986,99.601,-0.0040032
34.44,360.059,11.985,99.592,-0.0039705
34.66,362.259,11.984,99.583,-0.0044410
34.88,364.46,11.983,99.574,-0.0042122
35.1,366.66,11.982,99.565,-0.0040191
35.32,368.861,11.981,99.556,-0.0039269
35.54,371.061,11.98,99.546,-0.0043377
35.76,373.261,11.978,99.537,-0.0040548
35.98,375.462,11.977,99.527,-0.0038603
36.2,377.662,11.976,99.517,-0.0050557
36.39,379.862,11.975,99.509,-0.0052171
36.39,382.063,11.975,99.509,-0.0052171
36.39,384.263,11.975,99.509,-0.0052171
36.39,386.464,11.975,99.509,-0.0052171
36.39,388.664,11.975,99.509,-0.0052171
36.39,390.864,11.975,99.509,-0.0052171
36.39,393.065,11.975,99.509,-0.0052171
36.39,395.265,11.975,99.509,-0.0052171
36.39,397.466,11.975,99.509,-0.0052171
36.39,399.666,11.975,99.509,-0.0052171
36.39,401.866,11.975,99.509,-0.0052171
36.39,404.067,11.975,99.509,-0.0052171
36.39,406.267,11.975,99.509,-0.0052171
36.39,408.468,11.975,99.509,-0.0052171
36.39,410.668,11.975,99.509,-0.0052171
36.39,412.868,11.975,99.509,-0.0052171
36.39,415.069,11.975,99.509,-0.0052171
36.39,417.269,11.975,99.509,-0.0052171
36.39,419.47,11.975,99.509,-0.0052171
36.39,421.67,11.975,99.509,-0.0052171
36.39,423.87,11.975,99.509,-0.0052171
36.39,426.071,11.975,99.509,-0.0052171
36.39,428.271,11.975,99.509,-0.0052171
36.39,430.472,11.975,99.509,-0.0052171
36.39,432.672,11.975,99.509,-0.0052171
36.39,434.872,11.975,99.509,-0.0052171
36.39,437.073,11.975,99.509,-0.0052171
36.39,439.273,11.975,99.509,-0.0052171
36.39,441.473,11.975,99.509,-0.0052171
36.39,443.674,11.975,99.509,-0.0052171
36.39,445.874,11.975,99.509,-0.0052171
36.39,448.075,11.975,99.509,-0.0052171
36.39,450.275,11.975,99.509,-0.0052171
36.39,452.475,11.975,99.509,-0.0052171
36.39,454.676,11.975,99.509,-0.0052171
36.39,456.876,11.975,99.509,-0.0052171
36.39,459.077,11.975,99.509,-0.0052171
36.39,461.277,11.975,99.509,-0.0052171
36.39,463.477,11.975,99.509,-0.0052171
36.39,465.678,11.975,99.509,-0.0052171
36.39,467.878,11.975,99.509,-0.0052171
36.39,470.079,11.975,99.509,-0.0052171
36.39,472.279,11.975,99.509,-0.0052171
36.39,474.479,11.975,99.509,-0.0052171
36.39,476.68,11.975,99.509,-0.0052171
36.39,478.88,11.975,99.509,-0.0052171
36.39,481.081,11.975,99.509,-0.0052171
36.39,483.281,11.975,99.509,-0.0052171
36.39,485.481,11.975,99.509,-0.0052171
36.39,487.682,11.975,99.509,-0.0052171
36.39,489.882,11.975,99.509,-0.0052171
36.39,492.083,11.975,99.509,-0.0052171
36.39,494.283,11.975,99.509,-0.0052171
36.39,496.483,11.975,99.509,-0.0052171
36.39,498.684,11.975,99.509,-0.0052171
36.39,500.884,11.975,99.509,-0.0052171
36.39,503.084,11.975,99.509,-0.0052171
36.39,505.285,11.975,99.509,-0.0052171
36.39,507.485,11.975,99.509,-0.0052171
36.39,509.686,11.975,99.509,-0.0052171
36.39,511.886,11.975,99.509,-0.0052171
36.39,514.086,11.975,99.509,-0.0052171
36.39,516.287,11.975,99.509,-0.0052171
36.39,518.487,11.975,99.509,-0.0052171
36.39,520.688,11.975,99.509,-0.0052171
36.39,522.888,11.975,99.509,-0.0052171
36.39,525.088,11.975,99.509,-0.0052171
36.39,527.289,11.975,99.509,-0.0052171
36.39,529.489,11.975,99.509,-0.0052171
36.39,531.69,11.975,99.509,-0.0052171
36.39,533.89,11.975,99.509,-0.0052171
36.39,536.09,11.975,99.509,-0.0052171
36.39,538.291,11.975,99.509,-0.0052171
36.39,540.491,11.975,99.509,-0.0052171
36.39,542.692,11.975,99.509,-0.0052171
36.39,544.892,11.975,99.509,-0.0052171
36.39,547.092,11.975,99.509,-0.0052171
36.39,549.293,11.975,99.509,-0.0052171
36.39,551.493,11.975,99.509,-0.0052171
36.39,553.694,11.975,99.509,-0.0052171
36.39,555.894,11.975,99.509,-0.0052171
36.39,558.094,11.975,99.509,-0.0052171
36.39,560.295,11.975,99.509,-0.0052171
36.39,562.495,11.975,99.509,-0.0052171
36.39,564.695,11.975,99.509,-0.0052171
36.39,566.896,11.975,99.509,-0.0052171
36.39,569.096,11.975,99.509,-0.0052171
36.39,571.297,11.975,99.509,-0.0052171
36.39,573.497,11.975,99.509,-0.0052171
36.39,575.697,11.975,99.509,-0.0052171
36.39,577.898,11.975,99.509,-0.0052171
36.39,580.098,11.975,99.509,-0.0052171
36.39,582.299,11.975,99.509,-0.0052171
36.39,584.499,11.975,99.509,-0.0052171
36.39,586.699,11.975,99.509,-0.0052171
36.39,588.9,11.975,99.509,-0.0052171
36.39,590,11.975,99.509,-0.0052171