Folder: rHDPE_Data_Analysis/R/rHDPE_App/app/www/Output/TGA/Condensed_Data (part 2)

File: Resin2_0__1.csv
0.9200000,30,13.975,100.03,0.0061806
1.18,32.2004,13.976,100.034,-0.0007375
1.43,34.4008,13.976,100.037,-0.0003041
1.67,36.6012,13.977,100.04,0.0005445
1.9,38.8016,13.977,100.042,-0.0001953
2.14,41.002,13.977,100.045,0.0003389
2.37,43.2024,13.978,100.047,0.0007702
2.6,45.4028,13.978,100.05,0.0001911
2.83,47.6031,13.978,100.052,0.0012339
3.06,49.8035,13.979,100.055,0.0010380
3.28,52.0039,13.979,100.057,0.0012205
3.51,54.2043,13.98,100.06,0.0009353
3.73,56.4047,13.98,100.062,0.0015830
3.96,58.6051,13.98,100.064,0.0012062
4.18,60.8055,13.98,100.067,0.0007871
4.4,63.0059,13.981,100.069,0.0007851
4.62,65.2063,13.981,100.07,0.0011060
4.84,67.4067,13.981,100.072,0.0007362
5.06,69.6071,13.982,100.074,0.0008727
5.29,71.8075,13.982,100.076,0.0006882
5.5,74.0079,13.982,100.077,0.0007800
5.73,76.2083,13.982,100.079,0.0005498
5.95,78.4086,13.982,100.08,0.0003207
6.16,80.609,13.983,100.081,0.0007776
6.39,82.8094,13.983,100.082,0.0005949
6.6,85.0098,13.983,100.084,0.0006866
6.83,87.2102,13.983,100.085,0.0004575
7.05,89.4106,13.983,100.085,0.0000000
7.27,91.611,13.983,100.086,0.0005494
7.49,93.8114,13.983,100.087,0.0005945
7.71,96.0118,13.983,100.087,0.0001374
7.93,98.2122,13.983,100.087,0.0006396
8.15,100.413,13.983,100.088,0.0000000
8.36,102.613,13.983,100.088,-0.0000458
8.59,104.813,13.983,100.088,0.0000458
8.81,107.014,13.983,100.088,0.0000458
9.03,109.214,13.983,100.088,-0.0002286
9.25,111.415,13.983,100.087,0.0002290
9.47,113.615,13.983,100.087,-0.0000915
9.69,115.815,13.983,100.087,-0.0004580
9.91,118.016,13.983,100.086,-0.0004578
10.13,120.216,13.983,100.086,-0.0000458
10.35,122.417,13.983,100.085,-0.0003665
10.57,124.617,13.983,100.085,-0.0003665
10.79,126.817,13.983,100.085,0.0000917
11.01,129.018,13.983,100.085,-0.0000917
11.23,131.218,13.983,100.084,-0.0003204
11.45,133.418,13.983,100.084,-0.0003661
11.67,135.619,13.983,100.083,-0.0004579
11.89,137.819,13.983,100.082,-0.0009600
12.11,140.02,13.982,100.078,-0.0021358
12.33,142.22,13.981,100.073,-0.0027273
12.55,144.42,13.981,100.067,-0.0021442
12.77,146.621,13.98,100.063,-0.0020187
12.98,148.821,13.979,100.059,-0.0017956
13.21,151.022,13.979,100.055,-0.0016543
13.43,153.222,13.978,100.052,-0.0018785
13.65,155.422,13.978,100.048,-0.0018816
13.87,157.623,13.977,100.045,-0.0016983
14.09,159.823,13.977,100.041,-0.0016966
14.31,162.024,13.976,100.037,-0.0018325
14.53,164.224,13.976,100.033,-0.0019261
14.75,166.424,13.975,100.028,-0.0019255
14.97,168.625,13.974,100.023,-0.0022909
15.19,170.825,13.974,100.019,-0.0023320
15.41,173.026,13.973,100.014,-0.0022967
15.63,175.226,13.972,100.009,-0.0025126
15.85,177.426,13.972,100.004,-0.0022940
16.07,179.627,13.971,99.999,-0.0022910
16.29,181.827,13.97,99.993,-0.0027936
16.51,184.028,13.969,99.988,-0.0024256
16.73,186.228,13.969,99.982,-0.0023840
16.95,188.428,13.968,99.976,-0.0026159
17.17,190.629,13.967,99.97,-0.0028396
17.39,192.829,13.966,99.965,-0.0025172
17.61,195.029,13.965,99.959,-0.0027994
17.83,197.23,13.965,99.953,-0.0025646
18.05,199.43,13.964,99.946,-0.0030270
18.27,201.631,13.963,99.94,-0.0030700
18.49,203.831,13.962,99.934,-0.0028854
18.71,206.031,13.961,99.927,-0.0032569
18.93,208.232,13.96,99.921,-0.0028357
19.15,210.432,13.959,99.914,-0.0031672
19.38,212.633,13.958,99.907,-0.0030242
19.59,214.833,13.957,99.901,-0.0029740
19.82,217.033,13.956,99.894,-0.0033471
20.03,219.234,13.955,99.887,-0.0034315
20.26,221.434,13.954,99.88,-0.0035698
20.48,223.635,13.953,99.873,-0.0032533
20.69,225.835,13.952,99.866,-0.0032524
20.92,228.035,13.951,99.858,-0.0033935
21.13,230.236,13.95,99.851,-0.0032104
21.36,232.436,13.949,99.843,-0.0034382
21.58,234.637,13.948,99.836,-0.0035260
21.79,236.837,13.947,99.828,-0.0036123
22.02,239.037,13.946,99.821,-0.0035289
22.24,241.238,13.945,99.813,-0.0033446
22.46,243.438,13.944,99.805,-0.0037587
22.68,245.639,13.943,99.797,-0.0034404
22.9,247.839,13.942,99.789,-0.0034757
23.12,250.039,13.941,99.781,-0.0035214
23.34,252.24,13.939,99.773,-0.0033846
23.56,254.44,13.938,99.765,-0.0038119
23.78,256.64,13.937,99.756,-0.0040278
24,258.841,13.936,99.748,-0.0038905
24.22,261.041,13.935,99.739,-0.0040293
24.44,263.242,13.934,99.73,-0.0040315
24.66,265.442,13.932,99.722,-0.0039872
24.88,267.642,13.931,99.713,-0.0040234
25.1,269.843,13.93,99.704,-0.0041322
25.32,272.043,13.929,99.694,-0.0041209
25.54,274.244,13.927,99.685,-0.0041209
25.76,276.444,13.926,99.676,-0.0041262
25.98,278.644,13.925,99.666,-0.0042644
26.2,280.845,13.923,99.656,-0.0043538
26.42,283.045,13.922,99.647,-0.0045830
26.64,285.246,13.921,99.637,-0.0044333
26.86,287.446,13.919,99.627,-0.0044537
27.08,289.646,13.918,99.618,-0.0046288
27.3,291.847,13.916,99.608,-0.0042606
27.52,294.047,13.915,99.597,-0.0045897
27.74,296.248,13.913,99.587,-0.0043900
27.96,298.448,13.912,99.577,-0.0048060
28.18,300.648,13.911,99.566,-0.0044954
28.4,302.849,13.909,99.556,-0.0047032
28.62,305.049,13.908,99.546,-0.0045304
28.84,307.25,13.906,99.535,-0.0046312
29.06,309.45,13.905,99.525,-0.0045763
29.28,311.65,13.903,99.514,-0.0047222
29.5,313.851,13.902,99.503,-0.0049424
29.72,316.051,13.9,99.492,-0.0050321
29.94,318.251,13.899,99.481,-0.0051357
30.16,320.452,13.897,99.47,-0.0050320
30.38,322.652,13.896,99.459,-0.0054824
30.6,324.853,13.894,99.447,-0.0052752
30.82,327.053,13.892,99.436,-0.0052617
31.04,329.253,13.891,99.424,-0.0053591
31.26,331.454,13.889,99.412,-0.0056144
31.48,333.654,13.887,99.4,-0.0056808
31.7,335.855,13.886,99.388,-0.0057161
31.92,338.055,13.884,99.375,-0.0058791
32.14,340.255,13.882,99.362,-0.0057938
32.36,342.456,13.88,99.349,-0.0060517
32.58,344.656,13.878,99.336,-0.0061655
32.8,346.857,13.876,99.322,-0.0065078
33.02,349.057,13.874,99.308,-0.0063668
33.24,351.257,13.872,99.293,-0.0066800
33.46,353.458,13.87,99.278,-0.0068411
33.68,355.658,13.868,99.262,-0.0075619
33.9,357.859,13.866,99.246,-0.0077555
34.12,360.059,13.863,99.229,-0.0077796
34.34,362.259,13.861,99.21,-0.0087109
34.56,364.46,13.858,99.191,-0.0090742
34.79,366.66,13.855,99.171,-0.0097527
35,368.861,13.852,99.149,-0.0101574
35.23,371.061,13.849,99.125,-0.0112008
35.44,373.261,13.845,99.099,-0.0122107
35.66,375.462,13.841,99.07,-0.0140388
35.88,377.662,13.837,99.038,-0.0153958
36.1,379.862,13.832,99.002,-0.0171546
36.32,382.063,13.826,98.962,-0.0192518
36.54,384.263,13.82,98.917,-0.0217033
36.76,386.464,13.813,98.866,-0.0245609
36.98,388.664,13.805,98.809,-0.0274373
37.2,390.864,13.796,98.746,-0.0305581
37.42,393.065,13.786,98.675,-0.0339908
37.64,395.265,13.775,98.596,-0.0372282
37.86,397.466,13.763,98.51,-0.0417125
38.08,399.666,13.75,98.413,-0.0459502
38.3,401.866,13.735,98.307,-0.0508963
38.52,404.067,13.718,98.188,-0.0569638
38.74,406.267,13.699,98.055,-0.0636430
38.96,408.468,13.679,97.905,-0.0729548
39.18,410.668,13.654,97.728,-0.0922570
39.4,412.868,13.622,97.497,-0.1165290
39.62,415.069,13.583,97.222,-0.1373120
39.84,417.269,13.539,96.907,-0.1563930
40.06,419.47,13.489,96.549,-0.1667130
40.28,421.67,13.433,96.144,-0.1977870
40.5,423.87,13.369,95.687,-0.2182060
40.73,426.071,13.296,95.164,-0.2493130
40.94,428.271,13.213,94.576,-0.2823160
41.16,430.472,13.119,93.899,-0.3326920
41.39,432.672,13.009,93.112,-0.3803570
41.61,434.872,12.881,92.194,-0.4547450
41.82,437.073,12.73,91.119,-0.5371180
42.04,439.273,12.547,89.805,-0.6534860
42.26,441.473,12.325,88.218,-0.7980060
42.48,443.674,12.061,86.326,-0.9322640
42.71,445.874,11.757,84.153,-1.05888
42.92,448.075,11.397,81.577,-1.28959
43.14,450.275,10.97,78.516,-1.53923
43.36,452.475,10.465,74.905,-1.78061
43.59,454.676,9.863,70.597,-2.12855
43.81,456.876,9.152,65.509,-2.48441
44.03,459.077,8.327,59.602,-2.85341
44.24,461.277,7.397,52.947,-3.25037
44.47,463.477,6.347,45.429,-3.57728
44.69,465.678,5.236,37.477,-3.60855
44.91,467.878,4.095,29.311,-3.70175
45.13,470.079,2.996,21.444,-3.33938
45.34,472.279,2.027,14.506,-2.88237
45.56,474.479,1.242,8.891,-2.16213
45.78,476.68,0.7110000,5.089,-1.32577
46,478.88,0.4160000,2.977,-0.6152460
46.22,481.081,0.2920000,2.091,-0.2189490
46.44,483.281,0.2600000,1.859,-0.0424147
46.66,485.481,0.2490000,1.78,-0.0255689
46.88,487.682,0.2440000,1.744,-0.0094431
47.1,489.882,0.2420000,1.731,-0.0032705
47.32,492.083,0.2410000,1.727,-0.0012956
47.54,494.283,0.2410000,1.725,-0.0008300
47.76,496.483,0.2410000,1.724,-0.0003594
47.99,498.684,0.2410000,1.723,-0.0001993
48.21,500.884,0.2410000,1.723,0.0000029
48.42,503.084,0.2410000,1.723,-0.0003689
48.64,505.285,0.2410000,1.723,0.0000947
48.86,507.485,0.2410000,1.722,-0.0004384
49.08,509.686,0.2410000,1.722,-0.0000179
49.3,511.886,0.2410000,1.722,-0.0002307
49.52,514.086,0.2410000,1.722,0.0001193
49.74,516.287,0.2400000,1.721,-0.0002170
49.96,518.487,0.2400000,1.721,-0.0001301
50.18,520.688,0.2400000,1.721,0.0001448
50.4,522.888,0.2400000,1.721,-0.0004149
50.62,525.088,0.2400000,1.72,-0.0000801
50.84,527.289,0.2400000,1.72,-0.0006072
51.06,529.489,0.2400000,1.719,-0.0004452
51.28,531.69,0.2400000,1.719,0.0000179
51.5,533.89,0.2400000,1.718,-0.0002429
51.72,536.09,0.2400000,1.718,-0.0002640
51.94,538.291,0.2400000,1.717,-0.0001431
52.16,540.491,0.2400000,1.717,-0.0002507
52.38,542.692,0.2400000,1.717,-0.0000702
52.6,544.892,0.2400000,1.716,-0.0001301
52.82,547.092,0.2400000,1.716,-0.0002960
53.04,549.293,0.2400000,1.716,0.0000322
53.26,551.493,0.2400000,1.715,-0.0001767
53.48,553.694,0.2400000,1.714,-0.0004150
53.7,555.894,0.2390000,1.714,-0.0002683
53.92,558.094,0.2390000,1.713,-0.0001770
54.14,560.295,0.2390000,1.712,-0.0005545
54.36,562.495,0.2390000,1.711,-0.0002973
54.58,564.695,0.2390000,1.71,-0.0008637
54.8,566.896,0.2390000,1.708,-0.0010374
55.02,569.096,0.2380000,1.706,-0.0011837
55.24,571.297,0.2380000,1.703,-0.0011413
55.46,573.497,0.2380000,1.702,-0.0009143
55.68,575.697,0.2370000,1.7,-0.0008373
55.9,577.898,0.2370000,1.698,-0.0006316
56.12,580.098,0.2370000,1.697,-0.0008240
56.34,582.299,0.2370000,1.696,-0.0005921
56.56,584.499,0.2370000,1.694,-0.0006113
56.78,586.699,0.2370000,1.693,-0.0005978
57,588.9,0.2360000,1.692,-0.0004503
57.11,590,0.2360000,1.692,-0.0006353

File: Resin2_1_.csv
0.7200000,30,17.619,100.015,0.0037697
1,32.2004,17.62,100.023,0.0044916
1.26,34.4008,17.621,100.028,0.0014518
1.5,36.6012,17.622,100.032,0.0021648
1.74,38.8016,17.622,100.035,0.0011356
1.98,41.002,17.623,100.038,0.0006333
2.21,43.2024,17.623,100.04,0.0015463
2.44,45.4028,17.624,100.043,0.0016301
2.67,47.6031,17.624,100.046,0.0008570
2.9,49.8035,17.625,100.049,0.0011833
3.13,52.0039,17.625,100.051,0.0006119
3.35,54.2043,17.626,100.054,0.0015922
3.58,56.4047,17.626,100.056,0.0011655
3.8,58.6051,17.627,100.059,0.0012084
4.03,60.8055,17.627,100.061,0.0006030
4.25,63.0059,17.627,100.063,0.0010171
4.47,65.2063,17.628,100.066,0.0010146
4.69,67.4067,17.628,100.068,0.0012437
4.91,69.6071,17.629,100.07,0.0011038
5.13,71.8075,17.629,100.072,0.0007812
5.35,74.0079,17.629,100.073,0.0007345
5.57,76.2083,17.63,100.075,0.0007799
5.8,78.4086,17.63,100.077,0.0007793
6.01,80.609,17.63,100.078,0.0008246
6.24,82.8094,17.63,100.08,0.0008242
6.45,85.0098,17.631,100.081,0.0001832
6.68,87.2102,17.631,100.082,0.0006869
6.9,89.4106,17.631,100.083,0.0002290
7.12,91.611,17.631,100.084,0.0004123
7.34,93.8114,17.631,100.084,0.0002289
7.56,96.0118,17.631,100.085,0.0003664
7.78,98.2122,17.631,100.085,0.0005031
8,100.413,17.631,100.085,0.0004119
8.22,102.613,17.631,100.085,0.0002288
8.44,104.813,17.631,100.086,0.0000916
8.66,107.014,17.631,100.086,-0.0000458
8.88,109.214,17.631,100.086,0.0000000
9.1,111.415,17.631,100.085,-0.0000915
9.32,113.615,17.631,100.085,-0.0002290
9.54,115.815,17.631,100.085,0.0000916
9.76,118.016,17.631,100.084,-0.0000458
9.98,120.216,17.631,100.084,0.0000000
10.2,122.417,17.631,100.084,0.0000000
10.42,124.617,17.631,100.083,-0.0001375
10.64,126.817,17.631,100.083,-0.0001376
10.86,129.018,17.631,100.083,-0.0001377
11.08,131.218,17.631,100.082,0.0005502
11.3,133.418,17.631,100.082,-0.0002754
11.52,135.619,17.631,100.082,0.0000000
11.74,137.819,17.631,100.082,-0.0004126
11.96,140.02,17.631,100.081,-0.0006400
12.18,142.22,17.63,100.079,-0.0007746
12.4,144.42,17.63,100.077,-0.0015869
12.62,146.621,17.629,100.073,-0.0021622
12.83,148.821,17.628,100.068,-0.0024858
13.05,151.022,17.627,100.063,-0.0019171
13.27,153.222,17.627,100.058,-0.0019332
13.49,155.422,17.626,100.054,-0.0019416
13.72,157.623,17.625,100.05,-0.0016610
13.94,159.823,17.624,100.046,-0.0019360
14.16,162.024,17.624,100.042,-0.0021619
14.38,164.224,17.623,100.038,-0.0017463
14.6,166.424,17.622,100.034,-0.0021573
14.82,168.625,17.622,100.03,-0.0019734
15.04,170.825,17.621,100.025,-0.0022014
15.26,173.026,17.62,100.021,-0.0018318
15.48,175.226,17.619,100.016,-0.0021098
15.7,177.426,17.618,100.011,-0.0020174
15.92,179.627,17.617,100.006,-0.0021982
16.14,181.827,17.616,100.001,-0.0025197
16.36,184.028,17.615,99.995,-0.0021540
16.58,186.228,17.615,99.99,-0.0022446
16.8,188.428,17.614,99.985,-0.0027943
17.02,190.629,17.613,99.979,-0.0026142
17.24,192.829,17.611,99.973,-0.0027948
17.46,195.029,17.61,99.967,-0.0026550
17.68,197.23,17.609,99.96,-0.0028388
17.91,199.43,17.608,99.954,-0.0024267
18.13,201.631,17.607,99.948,-0.0026564
18.34,203.831,17.606,99.941,-0.0030206
18.57,206.031,17.605,99.934,-0.0027897
18.78,208.232,17.604,99.928,-0.0029309
19.01,210.432,17.602,99.921,-0.0030726
19.23,212.633,17.601,99.914,-0.0031643
19.44,214.833,17.6,99.907,-0.0030684
19.67,217.033,17.599,99.9,-0.0033914
19.89,219.234,17.597,99.892,-0.0031613
20.11,221.434,17.596,99.885,-0.0030754
20.33,223.635,17.595,99.878,-0.0034398
20.55,225.835,17.593,99.87,-0.0034363
20.77,228.035,17.592,99.863,-0.0035747
20.99,230.236,17.591,99.855,-0.0035763
21.21,232.436,17.589,99.848,-0.0035724
21.43,234.637,17.588,99.84,-0.0034372
21.65,236.837,17.587,99.832,-0.0032539
21.87,239.037,17.585,99.825,-0.0035256
22.09,241.238,17.584,99.817,-0.0033456
22.31,243.438,17.583,99.809,-0.0037115
22.53,245.639,17.581,99.801,-0.0037088
22.75,247.839,17.58,99.793,-0.0035704
22.97,250.039,17.578,99.785,-0.0035757
23.19,252.24,17.577,99.777,-0.0037580
23.41,254.44,17.575,99.768,-0.0039366
23.63,256.64,17.574,99.76,-0.0038941
23.85,258.841,17.573,99.752,-0.0037560
24.07,261.041,17.571,99.743,-0.0038919
24.29,263.242,17.57,99.734,-0.0038483
24.51,265.442,17.568,99.726,-0.0039421
24.73,267.642,17.566,99.717,-0.0038483
24.95,269.843,17.565,99.708,-0.0041232
25.17,272.043,17.563,99.699,-0.0042101
25.39,274.244,17.562,99.69,-0.0041689
25.61,276.444,17.56,99.68,-0.0041690
25.83,278.644,17.558,99.671,-0.0043080
26.05,280.845,17.557,99.662,-0.0044430
26.27,283.045,17.555,99.652,-0.0044872
26.49,285.246,17.553,99.642,-0.0046271
26.71,287.446,17.552,99.632,-0.0042163
26.93,289.646,17.55,99.622,-0.0044896
27.15,291.847,17.548,99.612,-0.0044414
27.37,294.047,17.546,99.603,-0.0042582
27.59,296.248,17.545,99.593,-0.0046703
27.81,298.448,17.543,99.583,-0.0045330
28.03,300.648,17.541,99.573,-0.0050843
28.25,302.849,17.539,99.562,-0.0049479
28.47,305.049,17.537,99.552,-0.0046304
28.69,307.25,17.535,99.541,-0.0053670
28.91,309.45,17.533,99.53,-0.0052579
29.13,311.65,17.531,99.519,-0.0051253
29.36,313.851,17.53,99.508,-0.0049946
29.58,316.051,17.528,99.497,-0.0050852
29.79,318.251,17.526,99.486,-0.0050824
30.02,320.452,17.524,99.475,-0.0047619
30.23,322.652,17.522,99.464,-0.0048993
30.46,324.853,17.52,99.453,-0.0051769
30.68,327.053,17.518,99.442,-0.0046730
30.89,329.253,17.516,99.431,-0.0054487
31.12,331.454,17.514,99.42,-0.0054000
31.33,333.654,17.512,99.408,-0.0056319
31.56,335.855,17.51,99.396,-0.0054029
31.78,338.055,17.508,99.384,-0.0050824
31.99,340.255,17.506,99.372,-0.0052226
32.22,342.456,17.503,99.359,-0.0054466
32.43,344.656,17.501,99.347,-0.0056755
32.66,346.857,17.499,99.335,-0.0056777
32.88,349.057,17.497,99.322,-0.0060383
33.09,351.257,17.495,99.309,-0.0057713
33.32,353.458,17.492,99.297,-0.0058150
33.53,355.658,17.49,99.284,-0.0062237
33.76,357.859,17.488,99.27,-0.0062786
33.98,360.059,17.485,99.256,-0.0062706
34.2,362.259,17.483,99.242,-0.0059470
34.42,364.46,17.48,99.228,-0.0062809
34.64,366.66,17.478,99.213,-0.0064959
34.86,368.861,17.475,99.198,-0.0069635
35.08,371.061,17.472,99.183,-0.0074676
35.3,373.261,17.469,99.166,-0.0077868
35.52,375.462,17.466,99.148,-0.0083838
35.74,377.662,17.463,99.129,-0.0094357
35.96,379.862,17.459,99.108,-0.0100788
36.18,382.063,17.455,99.085,-0.0109830
36.4,384.263,17.451,99.06,-0.0125981
36.62,386.464,17.446,99.033,-0.0132347
36.84,388.664,17.44,99.002,-0.0150769
37.06,390.864,17.434,98.967,-0.0171403
37.28,393.065,17.427,98.928,-0.0182334
37.5,395.265,17.42,98.885,-0.0202529
37.72,397.466,17.412,98.839,-0.0219699
37.94,399.666,17.403,98.789,-0.0232601
38.16,401.866,17.394,98.735,-0.0251970
38.38,404.067,17.383,98.676,-0.0277473
38.6,406.267,17.372,98.611,-0.0308952
38.82,408.468,17.359,98.539,-0.0343281
39.04,410.668,17.345,98.459,-0.0386692
39.26,412.868,17.329,98.369,-0.0431997
39.48,415.069,17.311,98.267,-0.0492314
39.7,417.269,17.291,98.153,-0.0550824
39.92,419.47,17.268,98.026,-0.0612879
40.14,421.67,17.241,97.869,-0.0855576
40.36,423.87,17.205,97.666,-0.1037630
40.58,426.071,17.163,97.43,-0.1184790
40.8,428.271,17.116,97.158,-0.1334550
41.02,430.472,17.061,96.851,-0.1419490
41.24,432.672,17.001,96.509,-0.1816870
41.46,434.872,16.93,96.103,-0.2119030
41.68,437.073,16.837,95.578,-0.2554150
41.9,439.273,16.736,95.005,-0.2832260
42.12,441.473,16.607,94.271,-0.3945550
42.34,443.674,16.455,93.409,-0.3995880
42.56,445.874,16.291,92.476,-0.4483060
42.78,448.075,16.094,91.359,-0.4983030
43,450.275,15.883,90.16,-0.6070380
43.22,452.475,15.609,88.606,-0.7239450
43.44,454.676,15.307,86.893,-0.9185690
43.66,456.876,14.929,84.744,-0.9639870
43.88,459.077,14.496,82.285,-1.28332
44.1,461.277,13.986,79.394,-1.46963
44.32,463.477,13.397,76.051,-1.63065
44.54,465.678,12.706,72.128,-2.10999
44.76,467.878,11.911,67.614,-2.17211
44.98,470.079,10.999,62.437,-2.62292
45.2,472.279,9.949,56.478,-2.85778
45.42,474.479,8.764,49.748,-3.18532
45.64,476.68,7.471,42.41,-3.49259
45.86,478.88,6.063,34.416,-3.71572
46.08,481.081,4.593,26.074,-2.98797
46.3,483.281,3.353,19.032,-3.28022
46.51,485.481,2.162,12.271,-2.81664
46.73,487.682,1.27,7.21,-1.887
46.95,489.882,0.6860000,3.896,-1.10423
47.17,492.083,0.4050000,2.302,-0.3796890
47.39,494.283,0.3250000,1.844,-0.0709427
47.61,496.483,0.3110000,1.766,-0.0248134
47.83,498.684,0.3050000,1.729,-0.0097112
48.06,500.884,0.3020000,1.716,-0.0036932
48.28,503.084,0.3010000,1.711,-0.0012916
48.5,505.285,0.3010000,1.709,-0.0005949
48.72,507.485,0.3010000,1.708,-0.0001568
48.94,509.686,0.3010000,1.707,-0.0002145
49.16,511.886,0.3010000,1.707,-0.0002646
49.38,514.086,0.3010000,1.706,-0.0005203
49.6,516.287,0.3010000,1.706,-0.0003439
49.82,518.487,0.3010000,1.706,0.0000500
50.04,520.688,0.3000000,1.706,-0.0000814
50.26,522.888,0.3000000,1.705,0.0001676
50.48,525.088,0.3000000,1.706,-0.0001707
50.69,527.289,0.3000000,1.705,-0.0000035
50.91,529.489,0.3000000,1.705,-0.0002108
51.14,531.69,0.3000000,1.705,-0.0004756
51.36,533.89,0.3000000,1.705,0.0000721
51.58,536.09,0.3000000,1.704,-0.0000493
51.79,538.291,0.3000000,1.704,-0.0002758
52.01,540.491,0.3000000,1.704,-0.0003231
52.24,542.692,0.3000000,1.703,-0.0003754
52.46,544.892,0.3000000,1.703,-0.0000150
52.68,547.092,0.3000000,1.703,-0.0002101
52.89,549.293,0.3000000,1.702,-0.0000029
53.11,551.493,0.3000000,1.702,-0.0003481
53.34,553.694,0.3000000,1.701,-0.0000379
53.55,555.894,0.3000000,1.701,-0.0002193
53.77,558.094,0.3000000,1.7,-0.0003554
53.99,560.295,0.2990000,1.7,-0.0004988
54.21,562.495,0.2990000,1.699,-0.0003348
54.43,564.695,0.2990000,1.699,-0.0001337
54.65,566.896,0.2990000,1.698,-0.0001530
54.87,569.096,0.2990000,1.698,-0.0002502
55.09,571.297,0.2990000,1.697,-0.0000122
55.31,573.497,0.2990000,1.697,-0.0000586
55.53,575.697,0.2990000,1.697,-0.0001107
55.75,577.898,0.2990000,1.696,-0.0003559
55.97,580.098,0.2990000,1.695,-0.0004135
56.19,582.299,0.2980000,1.694,-0.0003838
56.41,584.499,0.2980000,1.694,-0.0003799
56.63,586.699,0.2980000,1.693,-0.0005555
56.85,588.9,0.2980000,1.692,-0.0004846
56.96,590,0.2980000,1.691,-0.0005688