Folder: rHDPE_Data_Analysis/R/rHDPE_App/app/www/Output/TGA/Condensed_Data (part 6)

File: Resin4_2_.csv
0.9100000,30,13.439,100.036,0.0004033
1.18,32.2004,13.44,100.042,0.0055138
1.43,34.4008,13.441,100.047,0.0003045
1.67,36.6012,13.441,100.051,0.0034146
1.91,38.8016,13.442,100.054,0.0016609
2.14,41.002,13.442,100.057,0.0015489
2.37,43.2024,13.443,100.06,0.0022103
2.6,45.4028,13.443,100.063,0.0010035
2.83,47.6031,13.443,100.066,0.0012356
3.06,49.8035,13.444,100.07,0.0024144
3.29,52.0039,13.444,100.073,0.0002821
3.51,54.2043,13.445,100.076,0.0014973
3.73,56.4047,13.445,100.079,0.0014006
3.96,58.6051,13.445,100.082,0.0008826
4.18,60.8055,13.446,100.084,0.0010653
4.4,63.0059,13.446,100.087,0.0002771
4.63,65.2063,13.446,100.089,0.0010150
4.85,67.4067,13.447,100.091,0.0004144
5.07,69.6071,13.447,100.094,0.0001838
5.29,71.8075,13.447,100.096,0.0005513
5.51,74.0079,13.448,100.098,0.0006414
5.73,76.2083,13.448,100.099,0.0009627
5.95,78.4086,13.448,100.101,0.0003662
6.17,80.609,13.448,100.103,0.0007324
6.39,82.8094,13.448,100.104,0.0005045
6.61,85.0098,13.449,100.105,0.0010971
6.83,87.2102,13.449,100.107,0.0010087
7.05,89.4106,13.449,100.108,0.0009597
7.27,91.611,13.449,100.109,0.0008683
7.49,93.8114,13.449,100.11,0.0006857
7.71,96.0118,13.449,100.111,0.0002743
7.93,98.2122,13.449,100.111,0.0002293
8.15,100.413,13.449,100.112,0.0009595
8.37,102.613,13.449,100.112,0.0001370
8.59,104.813,13.45,100.112,-0.0002289
8.81,107.014,13.45,100.113,0.0004126
9.03,109.214,13.45,100.113,-0.0000000
9.25,111.415,13.45,100.113,0.0005037
9.47,113.615,13.45,100.113,-0.0002289
9.69,115.815,13.45,100.113,0.0000000
9.91,118.016,13.45,100.113,0.0003680
10.13,120.216,13.45,100.113,-0.0000457
10.35,122.417,13.45,100.113,0.0003664
10.57,124.617,13.45,100.113,0.0002292
10.79,126.817,13.45,100.113,0.0002297
11.01,129.018,13.45,100.114,0.0004590
11.23,131.218,13.45,100.115,0.0006426
11.45,133.418,13.45,100.116,-0.0003663
11.67,135.619,13.45,100.117,-0.0001831
11.9,137.819,13.45,100.118,0.0008280
12.11,140.02,13.45,100.118,-0.0003641
12.33,142.22,13.45,100.117,-0.0001823
12.55,144.42,13.45,100.115,-0.0010049
12.77,146.621,13.449,100.111,-0.0022381
12.99,148.821,13.449,100.107,-0.0017288
13.21,151.022,13.448,100.103,-0.0012764
13.43,153.222,13.448,100.101,-0.0013825
13.65,155.422,13.448,100.099,-0.0004610
13.87,157.623,13.447,100.097,-0.0005486
14.09,159.823,13.447,100.096,-0.0010543
14.31,162.024,13.447,100.094,-0.0005990
14.53,164.224,13.447,100.093,-0.0003222
14.75,166.424,13.447,100.092,-0.0003196
14.98,168.625,13.447,100.09,-0.0010979
15.2,170.825,13.446,100.089,-0.0003207
15.42,173.026,13.446,100.087,-0.0006892
15.63,175.226,13.446,100.086,-0.0004112
15.85,177.426,13.446,100.084,-0.0005500
16.08,179.627,13.445,100.082,-0.0005043
16.3,181.827,13.445,100.08,-0.0005960
16.52,184.028,13.445,100.078,-0.0009162
16.74,186.228,13.445,100.076,-0.0010084
16.96,188.428,13.444,100.073,-0.0015581
17.18,190.629,13.444,100.071,-0.0012383
17.4,192.829,13.444,100.068,-0.0010083
17.62,195.029,13.443,100.066,-0.0011445
17.84,197.23,13.443,100.063,-0.0015106
18.06,199.43,13.443,100.06,-0.0011462
18.28,201.631,13.442,100.058,-0.0013287
18.5,203.831,13.442,100.054,-0.0012827
18.72,206.031,13.441,100.051,-0.0016019
18.94,208.232,13.441,100.048,-0.0012835
19.16,210.432,13.44,100.044,-0.0018335
19.38,212.633,13.44,100.041,-0.0014198
19.6,214.833,13.439,100.037,-0.0018332
19.82,217.033,13.439,100.033,-0.0016023
20.04,219.234,13.438,100.03,-0.0015575
20.26,221.434,13.438,100.026,-0.0020154
20.48,223.635,13.437,100.022,-0.0017423
20.7,225.835,13.437,100.018,-0.0015144
20.92,228.035,13.436,100.014,-0.0019234
21.14,230.236,13.436,100.01,-0.0023335
21.36,232.436,13.435,100.006,-0.0016048
21.58,234.637,13.435,100.001,-0.0020171
21.8,236.837,13.434,99.997,-0.0017848
22.02,239.037,13.433,99.992,-0.0021540
22.24,241.238,13.433,99.987,-0.0019725
22.46,243.438,13.432,99.982,-0.0024730
22.68,245.639,13.431,99.978,-0.0018796
22.9,247.839,13.431,99.972,-0.0022436
23.12,250.039,13.43,99.967,-0.0035208
23.34,252.24,13.429,99.962,-0.0021526
23.57,254.44,13.429,99.956,-0.0020608
23.78,256.64,13.428,99.951,-0.0024711
24.01,258.841,13.427,99.945,-0.0027015
24.23,261.041,13.426,99.938,-0.0031634
24.44,263.242,13.425,99.932,-0.0025221
24.67,265.442,13.424,99.925,-0.0029789
24.88,267.642,13.423,99.919,-0.0026566
25.11,269.843,13.423,99.912,-0.0034360
25.33,272.043,13.422,99.904,-0.0038834
25.54,274.244,13.421,99.897,-0.0037560
25.77,276.444,13.42,99.889,-0.0037580
25.98,278.644,13.418,99.881,-0.0040353
26.21,280.845,13.417,99.872,-0.0041247
26.43,283.045,13.416,99.863,-0.0042125
26.65,285.246,13.415,99.853,-0.0042110
26.87,287.446,13.413,99.843,-0.0049109
27.09,289.646,13.412,99.833,-0.0047506
27.31,291.847,13.411,99.822,-0.0056693
27.53,294.047,13.409,99.811,-0.0049010
27.75,296.248,13.407,99.799,-0.0056453
27.97,298.448,13.406,99.787,-0.0060015
28.19,300.648,13.404,99.774,-0.0057692
28.41,302.849,13.402,99.76,-0.0066019
28.63,305.049,13.4,99.746,-0.0068186
28.85,307.25,13.398,99.732,-0.0069381
29.07,309.45,13.396,99.716,-0.0065536
29.29,311.65,13.394,99.7,-0.0066139
29.51,313.851,13.392,99.684,-0.0070578
29.73,316.051,13.39,99.668,-0.0076050
29.95,318.251,13.387,99.65,-0.0084753
30.17,320.452,13.385,99.632,-0.0082831
30.39,322.652,13.383,99.614,-0.0083838
30.61,324.853,13.38,99.596,-0.0091200
30.83,327.053,13.378,99.577,-0.0089123
31.05,329.253,13.375,99.558,-0.0091034
31.27,331.454,13.372,99.539,-0.0085274
31.49,333.654,13.37,99.519,-0.0090235
31.71,335.855,13.367,99.5,-0.0089319
31.93,338.055,13.365,99.481,-0.0080172
32.15,340.255,13.362,99.462,-0.0088714
32.37,342.456,13.36,99.443,-0.0087454
32.59,344.656,13.357,99.424,-0.0080704
32.81,346.857,13.355,99.406,-0.0085211
33.03,349.057,13.352,99.388,-0.0078268
33.25,351.257,13.35,99.37,-0.0081914
33.47,353.458,13.347,99.352,-0.0076881
33.69,355.658,13.345,99.335,-0.0079314
33.91,357.859,13.343,99.318,-0.0077740
34.13,360.059,13.34,99.3,-0.0083333
34.35,362.259,13.338,99.283,-0.0079670
34.57,364.46,13.336,99.265,-0.0082356
34.79,366.66,13.333,99.247,-0.0077381
35.01,368.861,13.331,99.228,-0.0082004
35.23,371.061,13.328,99.21,-0.0086965
35.45,373.261,13.326,99.19,-0.0086443
35.67,375.462,13.323,99.169,-0.0097087
35.89,377.662,13.32,99.147,-0.0099817
36.11,379.862,13.317,99.124,-0.0104453
36.33,382.063,13.313,99.099,-0.0119005
36.55,384.263,13.31,99.072,-0.0127359
36.77,386.464,13.306,99.043,-0.0137897
36.99,388.664,13.302,99.011,-0.0152473
37.21,390.864,13.297,98.977,-0.0158883
37.43,393.065,13.292,98.94,-0.0166118
37.65,395.265,13.287,98.901,-0.0189172
37.87,397.466,13.281,98.858,-0.0202196
38.09,399.666,13.275,98.811,-0.0221409
38.31,401.866,13.268,98.76,-0.0248855
38.53,404.067,13.26,98.703,-0.0267857
38.75,406.267,13.252,98.64,-0.0304319
38.97,408.468,13.242,98.569,-0.0344922
39.19,410.668,13.231,98.489,-0.0385073
39.41,412.868,13.219,98.399,-0.0434066
39.63,415.069,13.206,98.297,-0.0495245
39.85,417.269,13.19,98.181,-0.0568619
40.07,419.47,13.172,98.046,-0.0664864
40.29,421.67,13.15,97.887,-0.0780707
40.51,423.87,13.122,97.672,-0.1155680
40.73,426.071,13.082,97.375,-0.1504930
40.95,428.271,13.032,97.004,-0.1875230
41.17,430.472,12.974,96.571,-0.2168190
41.39,432.672,12.905,96.056,-0.2656310
41.61,434.872,12.823,95.446,-0.3024740
41.83,437.073,12.724,94.71,-0.3486730
42.05,439.273,12.61,93.867,-0.4221530
42.27,441.473,12.486,92.944,-0.4404850
42.49,443.674,12.337,91.828,-0.5515240
42.71,445.874,12.134,90.319,-0.7406030
42.93,448.075,11.899,88.571,-0.8348480
43.15,450.275,11.618,86.479,-1.09025
43.37,452.475,11.282,83.98,-1.26753
43.59,454.676,10.887,81.036,-1.56094
43.81,456.876,10.407,77.467,-1.69037
44.03,459.077,9.867,73.449,-2.11877
44.25,461.277,9.229,68.699,-2.28726
44.47,463.477,8.497,63.25,-2.75357
44.69,465.678,7.658,56.999,-3.13836
44.91,467.878,6.722,50.034,-3.30235
45.13,470.079,5.699,42.419,-3.61718
45.35,472.279,4.61,34.317,-3.70076
45.57,474.479,3.454,25.712,-3.73318
45.79,476.68,2.535,18.87,-2.88471
46.01,478.88,1.774,13.209,-2.28053
46.23,481.081,1.195,8.896,-1.59962
46.45,483.281,0.8200000,6.102,-1.01749
46.66,485.481,0.6240000,4.646,-0.4383590
46.89,487.682,0.5460000,4.065,-0.1334280
47.11,489.882,0.5250000,3.909,-0.0489942
47.33,492.083,0.5140000,3.825,-0.0268297
47.55,494.283,0.5090000,3.785,-0.0112810
47.78,496.483,0.5060000,3.769,-0.0043856
47.99,498.684,0.5060000,3.763,-0.0014473
48.21,500.884,0.5050000,3.761,-0.0007562
48.43,503.084,0.5050000,3.76,-0.0000488
48.65,505.285,0.5050000,3.759,-0.0002181
48.87,507.485,0.5050000,3.759,0.0000558
49.09,509.686,0.5050000,3.76,0.0001532
49.31,511.886,0.5050000,3.76,0.0000387
49.53,514.086,0.5050000,3.76,0.0001202
49.75,516.287,0.5050000,3.76,0.0002032
49.97,518.487,0.5050000,3.761,0.0001288
50.19,520.688,0.5050000,3.761,-0.0001831
50.41,522.888,0.5050000,3.761,-0.0000772
50.63,525.088,0.5050000,3.761,0.0000986
50.85,527.289,0.5050000,3.761,0.0005775
51.07,529.489,0.5050000,3.761,0.0000315
51.29,531.69,0.5050000,3.761,0.0000758
51.51,533.89,0.5050000,3.761,-0.0003745
51.73,536.09,0.5050000,3.761,-0.0001757
51.95,538.291,0.5050000,3.76,-0.0002218
52.17,540.491,0.5050000,3.76,-0.0003475
52.39,542.692,0.5050000,3.76,-0.0000542
52.61,544.892,0.5050000,3.759,-0.0001743
52.83,547.092,0.5050000,3.759,0.0000987
53.05,549.293,0.5050000,3.759,-0.0002057
53.27,551.493,0.5050000,3.758,-0.0003649
53.49,553.694,0.5050000,3.758,-0.0000328
53.71,555.894,0.5050000,3.757,-0.0001957
53.93,558.094,0.5050000,3.757,-0.0001316
54.15,560.295,0.5050000,3.756,-0.0002089
54.37,562.495,0.5040000,3.755,0.0001257
54.59,564.695,0.5040000,3.755,-0.0002833
54.81,566.896,0.5040000,3.754,-0.0003028
55.03,569.096,0.5040000,3.753,-0.0005546
55.25,571.297,0.5040000,3.752,-0.0004088
55.47,573.497,0.5040000,3.751,-0.0001874
55.69,575.697,0.5040000,3.749,-0.0007632
55.91,577.898,0.5030000,3.747,-0.0008170
56.13,580.098,0.5030000,3.746,-0.0005852
56.35,582.299,0.5030000,3.744,-0.0004946
56.57,584.499,0.5030000,3.742,-0.0010116
56.79,586.699,0.5020000,3.74,-0.0011547
57.01,588.9,0.5020000,3.738,-0.0007855
57.12,590,0.5020000,3.737,-0.0007335

File: Resin5_0__1.csv
1.04,30,19.037,100.017
1.26,31.9003,19.037,100.017
1.47,33.8007,19.037,100.017
1.68,35.701,19.037,100.017
1.88,37.6014,19.037,100.016
2.08,39.5017,19.037,100.016
2.28,41.402,19.037,100.016
2.48,43.3024,19.037,100.017
2.68,45.2027,19.037,100.017
2.88,47.1031,19.038,100.018
3.08,49.0034,19.038,100.019
3.27,50.9037,19.038,100.02
3.46,52.8041,19.038,100.021
3.66,54.7044,19.038,100.022
3.85,56.6048,19.039,100.023
4.04,58.5051,19.039,100.025
4.24,60.4054,19.039,100.026
4.43,62.3058,19.039,100.027
4.62,64.2061,19.039,100.027
4.81,66.1064,19.04,100.028
5,68.0068,19.04,100.029
5.19,69.9071,19.04,100.03
5.38,71.8075,19.04,100.031
5.57,73.7078,19.04,100.031
5.76,75.6081,19.04,100.032
5.95,77.5085,19.04,100.032
6.14,79.4088,19.04,100.033
6.33,81.3092,19.04,100.033
6.52,83.2095,19.041,100.034
6.71,85.1098,19.041,100.034
6.9,87.0102,19.041,100.035
7.1,88.9105,19.041,100.035
7.29,90.8109,19.041,100.035
7.48,92.7112,19.041,100.035
7.66,94.6115,19.041,100.035
7.85,96.5119,19.041,100.035
8.05,98.4122,19.041,100.035
8.24,100.313,19.041,100.035
8.42,102.213,19.041,100.035
8.61,104.113,19.041,100.035
8.8,106.014,19.041,100.034
8.99,107.914,19.041,100.034
9.18,109.814,19.041,100.034
9.37,111.715,19.04,100.033
9.56,113.615,19.04,100.032
9.75,115.515,19.04,100.032
9.94,117.416,19.04,100.031
10.13,119.316,19.04,100.031
10.33,121.216,19.04,100.03
10.52,123.117,19.04,100.029
10.7,125.017,19.04,100.029
10.9,126.917,19.04,100.028
11.08,128.818,19.039,100.028
11.28,130.718,19.039,100.028
11.47,132.618,19.039,100.027
11.66,134.519,19.039,100.027
11.85,136.419,19.039,100.026
12.04,138.319,19.039,100.024
12.23,140.22,19.038,100.022
12.42,142.12,19.038,100.018
12.6,144.02,19.037,100.013
12.79,145.921,19.036,100.008
12.98,147.821,19.035,100.004
13.17,149.721,19.034,100
13.36,151.622,19.033,99.996
13.55,153.522,19.033,99.993
13.75,155.422,19.032,99.989
13.94,157.323,19.031,99.985
14.13,159.223,19.031,99.981
14.32,161.123,19.03,99.977
14.51,163.024,19.029,99.973
14.7,164.924,19.028,99.968
14.89,166.824,19.027,99.963
15.08,168.725,19.026,99.959
15.27,170.625,19.025,99.953
15.46,172.525,19.024,99.948
15.65,174.426,19.023,99.943
15.84,176.326,19.022,99.938
16.03,178.226,19.021,99.932
16.22,180.127,19.02,99.926
16.41,182.027,19.019,99.92
16.6,183.927,19.018,99.914
16.79,185.828,19.017,99.908
16.98,187.728,19.015,99.902
17.17,189.629,19.014,99.895
17.36,191.529,19.013,99.889
17.55,193.429,19.012,99.882
17.74,195.33,19.01,99.875
17.93,197.23,19.009,99.868
18.12,199.13,19.008,99.861
18.31,201.031,19.006,99.854
18.5,202.931,19.005,99.847
18.69,204.831,19.004,99.839
18.88,206.732,19.002,99.832
19.07,208.632,19.001,99.825
19.26,210.532,18.999,99.817
19.45,212.433,18.998,99.809
19.64,214.333,18.996,99.802
19.83,216.233,18.995,99.794
20.02,218.134,18.994,99.787
20.21,220.034,18.992,99.779
20.4,221.934,18.991,99.771
20.59,223.835,18.989,99.763
20.78,225.735,18.988,99.756
20.97,227.635,18.986,99.748
21.16,229.536,18.985,99.74
21.35,231.436,18.983,99.733
21.54,233.336,18.982,99.725
21.73,235.237,18.98,99.717
21.93,237.137,18.979,99.709
22.12,239.037,18.977,99.701
22.31,240.938,18.976,99.693
22.49,242.838,18.974,99.685
22.68,244.738,18.973,99.677
22.88,246.639,18.971,99.67
23.07,248.539,18.97,99.662
23.26,250.439,18.968,99.654
23.44,252.34,18.967,99.646
23.64,254.24,18.965,99.638
23.83,256.14,18.964,99.63
24.02,258.041,18.962,99.622
24.21,259.941,18.961,99.614
24.4,261.841,18.959,99.605
24.59,263.742,18.958,99.597
24.78,265.642,18.956,99.589
24.97,267.542,18.954,99.581
25.16,269.443,18.953,99.573
25.35,271.343,18.951,99.564
25.54,273.243,18.95,99.556
25.73,275.144,18.948,99.547
25.92,277.044,18.946,99.539
26.11,278.944,18.945,99.53
26.3,280.845,18.943,99.521
26.49,282.745,18.941,99.513
26.68,284.645,18.94,99.504
26.87,286.546,18.938,99.495
27.06,288.446,18.936,99.486
27.25,290.346,18.935,99.477
27.44,292.247,18.933,99.468
27.63,294.147,18.931,99.459
27.82,296.048,18.93,99.451
28.01,297.948,18.928,99.442
28.2,299.848,18.926,99.433
28.39,301.749,18.924,99.424
28.58,303.649,18.923,99.415
28.77,305.549,18.921,99.405
28.96,307.45,18.919,99.396
29.15,309.35,18.917,99.387
29.34,311.25,18.916,99.377
29.53,313.151,18.914,99.368
29.72,315.051,18.912,99.359
29.91,316.951,18.91,99.349
30.1,318.852,18.909,99.34
30.29,320.752,18.907,99.331
30.48,322.652,18.905,99.321
30.67,324.553,18.903,99.311
30.86,326.453,18.901,99.302
31.05,328.353,18.899,99.292
31.24,330.254,18.898,99.282
31.43,332.154,18.896,99.272
31.62,334.054,18.894,99.262
31.81,335.955,18.892,99.252
32,337.855,18.89,99.242
32.19,339.755,18.888,99.232
32.38,341.656,18.886,99.222
32.57,343.556,18.884,99.212
32.76,345.456,18.882,99.202
32.95,347.357,18.88,99.191
33.14,349.257,18.878,99.181
33.33,351.157,18.876,99.171
33.52,353.058,18.874,99.16
33.71,354.958,18.872,99.149
33.9,356.858,18.87,99.138
34.09,358.759,18.868,99.126
34.28,360.659,18.866,99.114
34.47,362.559,18.863,99.101
34.66,364.46,18.861,99.088
34.85,366.36,18.858,99.074
35.04,368.26,18.855,99.059
35.23,370.161,18.852,99.043
35.42,372.061,18.849,99.026
35.61,373.961,18.845,99.009
35.8,375.862,18.842,98.99
35.99,377.762,18.838,98.969
36.18,379.662,18.834,98.947
36.37,381.563,18.829,98.924
36.56,383.463,18.824,98.898
36.75,385.363,18.819,98.869
36.94,387.264,18.813,98.838
37.13,389.164,18.807,98.804
37.32,391.064,18.799,98.767
37.51,392.965,18.792,98.726
37.7,394.865,18.783,98.681
37.89,396.765,18.774,98.632
38.08,398.666,18.764,98.579
38.27,400.566,18.753,98.521
38.46,402.467,18.741,98.457
38.65,404.367,18.727,98.388
38.84,406.267,18.713,98.311
39.03,408.168,18.696,98.226
39.22,410.068,18.678,98.131
39.41,411.968,18.658,98.023
39.6,413.869,18.632,97.887
39.79,415.769,18.6,97.721
39.98,417.669,18.566,97.539
40.17,419.57,18.528,97.339
40.36,421.47,18.485,97.116
40.55,423.37,18.437,96.865
40.74,425.271,18.383,96.581
40.93,427.171,18.324,96.267
41.12,429.071,18.255,95.905
41.31,430.972,18.175,95.486
41.5,432.872,18.082,94.999
41.69,434.772,17.976,94.443
41.88,436.673,17.855,93.806
42.07,438.573,17.715,93.072
42.26,440.473,17.552,92.214
42.45,442.374,17.353,91.166
42.64,444.274,17.123,89.958
42.83,446.174,16.859,88.571
43.02,448.075,16.555,86.978
43.21,449.975,16.2,85.11
43.4,451.875,15.79,82.954
43.59,453.776,15.312,80.445
43.79,455.676,14.755,77.519
43.98,457.576,14.113,74.148
44.16,459.477,13.381,70.298
44.36,461.377,12.546,65.911
44.54,463.277,11.595,60.914
44.74,465.178,10.532,55.332
44.93,467.078,9.383,49.294
45.11,468.978,8.156,42.848
45.31,470.879,6.854,36.01
45.49,472.779,5.496,28.875
45.69,474.679,4.158,21.844
45.88,476.58,2.969,15.598
46.06,478.48,1.937,10.174
46.25,480.38,1.155,6.065
46.44,482.281,0.6550000,3.44
46.63,484.181,0.3800000,1.996
46.82,486.081,0.2660000,1.4
47.01,487.982,0.2370000,1.245
47.2,489.882,0.2270000,1.194
47.39,491.782,0.2220000,1.166
47.58,493.683,0.2200000,1.155
47.77,495.583,0.2190000,1.15
47.96,497.483,0.2180000,1.148
48.15,499.384,0.2180000,1.146
48.34,501.284,0.2180000,1.146
48.53,503.184,0.2180000,1.146
48.72,505.085,0.2180000,1.145
48.91,506.985,0.2180000,1.145
49.1,508.886,0.2180000,1.145
49.29,510.786,0.2180000,1.145
49.48,512.686,0.2180000,1.144
49.67,514.587,0.2180000,1.144
49.86,516.487,0.2180000,1.143
50.05,518.387,0.2180000,1.143
50.24,520.288,0.2180000,1.143
50.43,522.188,0.2170000,1.143
50.62,524.088,0.2170000,1.142
50.81,525.989,0.2170000,1.142
51,527.889,0.2170000,1.142
51.19,529.789,0.2170000,1.142
51.38,531.69,0.2170000,1.141
51.57,533.59,0.2170000,1.141
51.76,535.49,0.2170000,1.141
51.95,537.391,0.2170000,1.141
52.14,539.291,0.2170000,1.14
52.33,541.191,0.2170000,1.14
52.52,543.092,0.2170000,1.14
52.71,544.992,0.2170000,1.139
52.9,546.892,0.2170000,1.139
53.09,548.793,0.2170000,1.139
53.28,550.693,0.2170000,1.138
53.47,552.593,0.2170000,1.138
53.66,554.494,0.2160000,1.137
53.85,556.394,0.2160000,1.137
54.04,558.294,0.2160000,1.136
54.23,560.195,0.2160000,1.135
54.42,562.095,0.2160000,1.134
54.61,563.995,0.2160000,1.133
54.8,565.896,0.2160000,1.132
54.99,567.796,0.2150000,1.131
55.18,569.696,0.2150000,1.13
55.37,571.597,0.2150000,1.129
55.56,573.497,0.2150000,1.127
55.75,575.397,0.2140000,1.126
55.94,577.298,0.2140000,1.124
56.13,579.198,0.2140000,1.122
56.32,581.098,0.2130000,1.12
56.51,582.999,0.2130000,1.117
56.7,584.899,0.2120000,1.115
56.89,586.799,0.2120000,1.112
57.08,588.7,0.2110000,1.109
57.21,590,0.2110000,1.107