Folder: rHDPE_Data_Analysis/R/rHDPE_App/app/www/Output/TGA/Condensed_Data (part 5)

File: Resin4_0_.csv
1.07,30,13.66,100.03,0.0019286
1.32,32.2004,13.66,100.033,0.0027145
1.57,34.4008,13.661,100.037,0.0010976
1.8,36.6012,13.661,100.04,0.0023557
2.04,38.8016,13.662,100.043,0.0009235
2.27,41.002,13.662,100.046,0.0008691
2.5,43.2024,13.663,100.049,0.0018228
2.73,45.4028,13.663,100.052,0.0022858
2.96,47.6031,13.663,100.055,0.0011823
3.19,49.8035,13.664,100.058,0.0015534
3.41,52.0039,13.664,100.061,0.0010301
3.64,54.2043,13.665,100.064,0.0015850
3.86,56.4047,13.665,100.066,0.0013475
4.08,58.6051,13.665,100.069,0.0008333
4.3,60.8055,13.666,100.071,0.0010172
4.53,63.0059,13.666,100.074,0.0009220
4.75,65.2063,13.666,100.076,0.0011512
4.97,67.4067,13.667,100.078,0.0011032
5.19,69.6071,13.667,100.08,0.0009637
5.41,71.8075,13.667,100.082,0.0006425
5.63,74.0079,13.667,100.083,0.0009623
5.85,76.2083,13.668,100.085,0.0005957
6.07,78.4086,13.668,100.086,0.0008698
6.29,80.609,13.668,100.088,0.0006860
6.51,82.8094,13.668,100.089,0.0005030
6.73,85.0098,13.668,100.09,0.0007331
6.95,87.2102,13.668,100.092,0.0004116
7.17,89.4106,13.669,100.093,0.0003656
7.39,91.611,13.669,100.094,0.0003200
7.61,93.8114,13.669,100.094,0.0001831
7.83,96.0118,13.669,100.095,-0.0000000
8.05,98.2122,13.669,100.096,0.0005495
8.27,100.413,13.669,100.096,0.0001373
8.49,102.613,13.669,100.097,0.0003203
8.71,104.813,13.669,100.097,0.0000000
8.93,107.014,13.669,100.097,0.0000000
9.15,109.214,13.669,100.097,-0.0000000
9.37,111.415,13.669,100.097,-0.0001374
9.59,113.615,13.669,100.097,-0.0002748
9.81,115.815,13.669,100.097,0.0000457
10.03,118.016,13.669,100.096,-0.0001372
10.25,120.216,13.669,100.096,-0.0004581
10.47,122.417,13.669,100.096,0.0001375
10.69,124.617,13.669,100.096,0.0000458
10.91,126.817,13.669,100.096,0.0000000
11.13,129.018,13.669,100.095,-0.0003671
11.35,131.218,13.669,100.096,0.0003668
11.57,133.418,13.669,100.097,0.0005051
11.79,135.619,13.669,100.098,0.0005499
12.01,137.819,13.669,100.099,0.0002291
12.23,140.02,13.669,100.1,-0.0001372
12.45,142.22,13.669,100.099,-0.0000458
12.67,144.42,13.669,100.098,-0.0007760
12.89,146.621,13.669,100.096,-0.0013658
13.11,148.821,13.668,100.091,-0.0023220
13.33,151.022,13.668,100.086,-0.0021864
13.55,153.222,13.667,100.082,-0.0013736
13.77,155.422,13.667,100.079,-0.0010087
13.99,157.623,13.666,100.077,-0.0011982
14.21,159.823,13.666,100.075,-0.0010567
14.43,162.024,13.666,100.073,-0.0003210
14.65,164.224,13.666,100.072,-0.0005509
14.87,166.424,13.665,100.07,-0.0006886
15.09,168.625,13.665,100.068,-0.0011004
15.32,170.825,13.665,100.066,-0.0008255
15.53,173.026,13.665,100.064,-0.0009628
15.75,175.226,13.664,100.062,-0.0010541
15.98,177.426,13.664,100.06,-0.0010079
16.2,179.627,13.664,100.058,-0.0011913
16.42,181.827,13.663,100.055,-0.0010538
16.63,184.028,13.663,100.053,-0.0010959
16.85,186.228,13.663,100.051,-0.0016055
17.08,188.428,13.662,100.048,-0.0016029
17.3,190.629,13.662,100.044,-0.0015099
17.52,192.829,13.662,100.041,-0.0013759
17.74,195.029,13.661,100.039,-0.0013750
17.96,197.23,13.661,100.035,-0.0016473
18.18,199.43,13.66,100.032,-0.0018807
18.4,201.631,13.66,100.028,-0.0018278
18.62,203.831,13.659,100.024,-0.0018802
18.84,206.031,13.659,100.02,-0.0017379
19.06,208.232,13.658,100.017,-0.0014675
19.28,210.432,13.658,100.013,-0.0018357
19.5,212.633,13.657,100.009,-0.0020604
19.72,214.833,13.656,100.004,-0.0017825
19.94,217.033,13.656,100,-0.0019234
20.16,219.234,13.655,99.996,-0.0016945
20.38,221.434,13.655,99.991,-0.0017002
20.6,223.635,13.654,99.987,-0.0019293
20.82,225.835,13.653,99.982,-0.0019698
21.04,228.035,13.653,99.977,-0.0023309
21.26,230.236,13.652,99.972,-0.0022894
21.48,232.436,13.652,99.968,-0.0021097
21.7,234.637,13.651,99.963,-0.0022450
21.92,236.837,13.65,99.958,-0.0022368
22.14,239.037,13.649,99.953,-0.0025660
22.36,241.238,13.649,99.948,-0.0026115
22.58,243.438,13.648,99.942,-0.0023362
22.8,245.639,13.647,99.937,-0.0022915
23.02,247.839,13.647,99.932,-0.0024703
23.24,250.039,13.646,99.926,-0.0027462
23.46,252.24,13.645,99.921,-0.0025684
23.68,254.44,13.644,99.915,-0.0027918
23.9,256.64,13.643,99.908,-0.0027951
24.12,258.841,13.643,99.902,-0.0027910
24.34,261.041,13.642,99.896,-0.0028899
24.56,263.242,13.641,99.889,-0.0028831
24.78,265.442,13.64,99.882,-0.0030220
25,267.642,13.639,99.875,-0.0032069
25.22,269.843,13.638,99.868,-0.0032503
25.44,272.043,13.637,99.86,-0.0035309
25.66,274.244,13.636,99.852,-0.0038905
25.88,276.444,13.635,99.844,-0.0038476
26.11,278.644,13.633,99.835,-0.0042606
26.33,280.845,13.632,99.826,-0.0043025
26.54,283.045,13.631,99.816,-0.0045830
26.77,285.246,13.629,99.806,-0.0046729
26.98,287.446,13.628,99.795,-0.0050871
27.21,289.646,13.626,99.784,-0.0056349
27.43,291.847,13.625,99.771,-0.0057692
27.64,294.047,13.623,99.759,-0.0057819
27.87,296.248,13.621,99.746,-0.0061927
28.08,298.448,13.619,99.732,-0.0065380
28.31,300.648,13.617,99.718,-0.0068186
28.53,302.849,13.615,99.703,-0.0071101
28.75,305.049,13.613,99.687,-0.0073287
28.97,307.25,13.611,99.671,-0.0075051
29.19,309.45,13.609,99.655,-0.0076007
29.41,311.65,13.606,99.638,-0.0079154
29.63,313.851,13.604,99.621,-0.0083243
29.85,316.051,13.602,99.603,-0.0082110
30.07,318.251,13.599,99.585,-0.0081960
30.29,320.452,13.597,99.566,-0.0084815
30.51,322.652,13.594,99.547,-0.0085243
30.73,324.853,13.591,99.528,-0.0090659
30.95,327.053,13.589,99.508,-0.0087342
31.17,329.253,13.586,99.489,-0.0089579
31.39,331.454,13.583,99.469,-0.0087156
31.61,333.654,13.581,99.45,-0.0090268
31.83,335.855,13.578,99.431,-0.0085923
32.05,338.055,13.576,99.412,-0.0087550
32.27,340.255,13.573,99.393,-0.0079938
32.49,342.456,13.571,99.375,-0.0080615
32.71,344.656,13.568,99.357,-0.0077839
32.93,346.857,13.566,99.34,-0.0077839
33.15,349.057,13.564,99.324,-0.0073193
33.37,351.257,13.561,99.308,-0.0067703
33.59,353.458,13.559,99.293,-0.0068794
33.81,355.658,13.557,99.278,-0.0066235
34.03,357.859,13.555,99.263,-0.0066477
34.25,360.059,13.553,99.247,-0.0074244
34.47,362.259,13.551,99.232,-0.0070119
34.69,364.46,13.549,99.216,-0.0076284
34.91,366.66,13.547,99.199,-0.0078339
35.13,368.861,13.544,99.181,-0.0083441
35.35,371.061,13.542,99.163,-0.0085056
35.57,373.261,13.539,99.143,-0.0091034
35.79,375.462,13.536,99.122,-0.0100733
36.01,377.662,13.533,99.098,-0.0109593
36.23,379.862,13.529,99.072,-0.0123288
36.45,382.063,13.525,99.044,-0.0131363
36.67,384.263,13.521,99.013,-0.0148646
36.89,386.464,13.516,98.979,-0.0166514
37.11,388.664,13.511,98.941,-0.0182244
37.33,390.864,13.506,98.899,-0.0196249
37.55,393.065,13.499,98.853,-0.0221409
37.77,395.265,13.492,98.801,-0.0246874
37.99,397.466,13.484,98.744,-0.0276409
38.21,399.666,13.476,98.679,-0.0312729
38.43,401.866,13.466,98.607,-0.0347120
38.65,404.067,13.455,98.526,-0.0387324
38.87,406.267,13.442,98.436,-0.0435897
39.09,408.468,13.428,98.334,-0.0489945
39.31,410.668,13.413,98.219,-0.0555861
39.53,412.868,13.395,98.088,-0.0639343
39.75,415.069,13.374,97.938,-0.0725836
39.97,417.269,13.35,97.763,-0.0940584
40.19,419.47,13.319,97.536,-0.1089890
40.41,421.67,13.282,97.259,-0.1385590
40.63,423.87,13.238,96.941,-0.1547870
40.85,426.071,13.188,96.574,-0.1796620
41.07,428.271,13.129,96.141,-0.2136450
41.29,430.472,13.061,95.641,-0.2525150
41.51,432.672,12.98,95.049,-0.2913760
41.73,434.872,12.884,94.348,-0.3481320
41.95,437.073,12.77,93.514,-0.4210550
42.17,439.273,12.639,92.553,-0.4840610
42.39,441.473,12.477,91.371,-0.5914650
42.61,443.674,12.283,89.947,-0.6993800
42.83,445.874,12.054,88.27,-0.8475590
43.05,448.075,11.76,86.117,-1.07305
43.27,450.275,11.428,83.688,-1.276
43.49,452.475,11.021,80.702,-1.41945
43.71,454.676,10.54,77.186,-1.75147
43.93,456.876,9.986,73.122,-2.01349
44.15,459.077,9.338,68.378,-2.36287
44.37,461.277,8.599,62.967,-2.67091
44.59,463.477,7.766,56.866,-2.95256
44.81,465.678,6.822,49.957,-3.3125
45.03,467.878,5.811,42.553,-3.47733
45.25,470.079,4.759,34.852,-3.56979
45.47,472.279,3.682,26.961,-3.52009
45.69,474.479,2.751,20.142,-2.96045
45.91,476.68,1.936,14.179,-2.39416
46.13,478.88,1.312,9.605,-1.73823
46.35,481.081,0.8940000,6.549,-1.06607
46.56,483.281,0.6600000,4.831,-0.5118990
46.79,485.481,0.5600000,4.103,-0.1712050
47.01,487.682,0.5340000,3.908,-0.0472928
47.23,489.882,0.5220000,3.823,-0.0278823
47.45,492.083,0.5160000,3.781,-0.0112586
47.67,494.283,0.5140000,3.766,-0.0038948
47.89,496.483,0.5140000,3.761,-0.0013940
48.11,498.684,0.5130000,3.759,-0.0002506
48.33,500.884,0.5130000,3.759,-0.0002363
48.55,503.084,0.5130000,3.758,0.0003673
48.77,505.285,0.5130000,3.759,0.0004547
48.99,507.485,0.5130000,3.759,0.0000388
49.21,509.686,0.5130000,3.759,-0.0000801
49.43,511.886,0.5130000,3.76,0.0000800
49.65,514.086,0.5130000,3.76,0.0003245
49.87,516.287,0.5130000,3.76,0.0001703
50.09,518.487,0.5130000,3.76,0.0001248
50.31,520.688,0.5140000,3.76,0.0001617
50.53,522.888,0.5140000,3.761,-0.0001285
50.75,525.088,0.5140000,3.761,0.0002602
50.97,527.289,0.5140000,3.761,-0.0001586
51.19,529.489,0.5140000,3.762,-0.0001099
51.41,531.69,0.5140000,3.762,-0.0000358
51.63,533.89,0.5140000,3.762,-0.0002087
51.85,536.09,0.5140000,3.762,0.0002435
52.07,538.291,0.5140000,3.762,-0.0000114
52.29,540.491,0.5140000,3.762,-0.0001288
52.51,542.692,0.5140000,3.762,-0.0000716
52.73,544.892,0.5140000,3.762,0.0002888
52.95,547.092,0.5140000,3.762,0.0000645
53.16,549.293,0.5140000,3.762,0.0001910
53.39,551.493,0.5140000,3.761,-0.0004412
53.61,553.694,0.5140000,3.761,0.0000516
53.83,555.894,0.5140000,3.761,0.0001398
54.04,558.094,0.5140000,3.761,-0.0000558
54.26,560.295,0.5140000,3.76,-0.0002304
54.49,562.495,0.5130000,3.76,-0.0001832
54.71,564.695,0.5130000,3.759,-0.0005383
54.93,566.896,0.5130000,3.758,-0.0006367
55.14,569.096,0.5130000,3.757,-0.0004827
55.36,571.297,0.5130000,3.756,-0.0007277
55.59,573.497,0.5130000,3.754,-0.0009115
55.81,575.697,0.5120000,3.753,-0.0009324
56.03,577.898,0.5120000,3.751,-0.0003234
56.24,580.098,0.5120000,3.749,-0.0008229
56.46,582.299,0.5120000,3.747,-0.0009213
56.68,584.499,0.5110000,3.745,-0.0008333
56.9,586.699,0.5110000,3.743,-0.0007555
57.12,588.9,0.5110000,3.742,-0.0008903
57.23,590,0.5110000,3.741,-0.0008106

File: Resin4_1_.csv
0.7400000,30,11.634,100.02,0.0057884
1.02,32.2004,11.635,100.031,0.0032122
1.28,34.4008,11.636,100.036,0.0051212
1.52,36.6012,11.636,100.04,0.0033696
1.76,38.8016,11.636,100.044,-0.0005422
2,41.002,11.637,100.048,0.0010700
2.23,43.2024,11.637,100.051,-0.0009182
2.46,45.4028,11.638,100.055,0.0013435
2.69,47.6031,11.638,100.058,0.0021420
2.92,49.8035,11.639,100.061,0.0014666
3.15,52.0039,11.639,100.065,0.0019770
3.37,54.2043,11.639,100.068,0.0010774
3.6,56.4047,11.64,100.071,0.0008867
3.82,58.6051,11.64,100.074,0.0006974
4.04,60.8055,11.64,100.077,0.0020855
4.27,63.0059,11.641,100.08,-0.0000462
4.49,65.2063,11.641,100.082,0.0011993
4.71,67.4067,11.641,100.085,0.0016119
4.93,69.6071,11.642,100.087,0.0011947
5.15,71.8075,11.642,100.089,0.0003214
5.37,74.0079,11.642,100.092,0.0013764
5.59,76.2083,11.642,100.094,0.0009172
5.81,78.4086,11.643,100.096,0.0011033
6.03,80.609,11.643,100.099,0.0010524
6.25,82.8094,11.643,100.1,0.0007317
6.47,85.0098,11.643,100.102,0.0004576
6.69,87.2102,11.643,100.103,0.0007779
6.91,89.4106,11.644,100.104,0.0008240
7.13,91.611,11.644,100.106,0.0008237
7.35,93.8114,11.644,100.106,0.0006416
7.57,96.0118,11.644,100.108,0.0004582
7.79,98.2122,11.644,100.109,0.0001831
8.01,100.413,11.644,100.109,-0.0000458
8.23,102.613,11.644,100.11,0.0003663
8.45,104.813,11.644,100.111,0.0000000
8.68,107.014,11.644,100.111,0.0004123
8.9,109.214,11.644,100.112,0.0003660
9.12,111.415,11.644,100.112,0.0001830
9.33,113.615,11.645,100.113,0.0000458
9.55,115.815,11.645,100.113,0.0004121
9.78,118.016,11.645,100.113,-0.0003207
10,120.216,11.645,100.113,-0.0002292
10.22,122.417,11.645,100.113,0.0003210
10.43,124.617,11.645,100.113,0.0004127
10.65,126.817,11.645,100.113,0.0001377
10.88,129.018,11.645,100.114,0.0004130
11.1,131.218,11.645,100.115,0.0003686
11.32,133.418,11.645,100.117,0.0009189
11.54,135.619,11.645,100.118,0.0006884
11.76,137.819,11.645,100.12,0.0005032
11.98,140.02,11.645,100.12,0.0004564
12.2,142.22,11.645,100.12,0.0000455
12.42,144.42,11.645,100.118,-0.0015010
12.63,146.621,11.645,100.114,-0.0023934
12.85,148.821,11.644,100.109,-0.0019913
13.07,151.022,11.644,100.104,-0.0012346
13.29,153.222,11.643,100.102,-0.0005987
13.51,155.422,11.643,100.1,-0.0009227
13.73,157.623,11.643,100.098,-0.0002304
13.96,159.823,11.643,100.097,-0.0006438
14.18,162.024,11.643,100.096,-0.0006431
14.4,164.224,11.643,100.096,-0.0003673
14.62,166.424,11.642,100.095,-0.0001377
14.84,168.625,11.642,100.094,-0.0003671
15.06,170.825,11.642,100.093,-0.0006420
15.28,173.026,11.642,100.091,-0.0009627
15.5,175.226,11.642,100.09,-0.0004123
15.72,177.426,11.642,100.089,-0.0006419
15.94,179.627,11.642,100.088,-0.0006865
16.16,181.827,11.641,100.086,-0.0004584
16.38,184.028,11.641,100.084,-0.0002291
16.6,186.228,11.641,100.083,-0.0007791
16.82,188.428,11.641,100.081,-0.0004122
17.04,190.629,11.641,100.079,-0.0006415
17.26,192.829,11.64,100.078,-0.0006873
17.48,195.029,11.64,100.075,-0.0008253
17.7,197.23,11.64,100.073,-0.0004125
17.92,199.43,11.64,100.071,-0.0007327
18.14,201.631,11.639,100.069,-0.0008237
18.36,203.831,11.639,100.066,-0.0015588
18.58,206.031,11.639,100.064,-0.0013291
18.81,208.232,11.639,100.061,-0.0008705
19.03,210.432,11.638,100.059,-0.0011450
19.24,212.633,11.638,100.056,-0.0006417
19.47,214.833,11.638,100.054,-0.0019252
19.68,217.033,11.637,100.05,-0.0021087
19.91,219.234,11.637,100.047,-0.0011905
20.13,221.434,11.637,100.044,-0.0017870
20.34,223.635,11.636,100.041,-0.0018349
20.57,225.835,11.636,100.038,-0.0019222
20.79,228.035,11.635,100.034,-0.0014204
21.01,230.236,11.635,100.031,-0.0014201
21.23,232.436,11.635,100.027,-0.0014194
21.45,234.637,11.634,100.023,-0.0014220
21.67,236.837,11.634,100.019,-0.0014208
21.89,239.037,11.633,100.015,-0.0018773
22.11,241.238,11.633,100.011,-0.0015105
22.33,243.438,11.632,100.007,-0.0019697
22.55,245.639,11.632,100.003,-0.0018320
22.77,247.839,11.631,99.999,-0.0018340
22.99,250.039,11.631,99.994,-0.0021078
23.21,252.24,11.63,99.99,-0.0026111
23.43,254.44,11.63,99.985,-0.0022887
23.65,256.64,11.629,99.98,-0.0023352
23.87,258.841,11.628,99.975,-0.0026114
24.09,261.041,11.628,99.969,-0.0023352
24.31,263.242,11.627,99.964,-0.0031622
24.53,265.442,11.627,99.958,-0.0026084
24.75,267.642,11.626,99.952,-0.0022873
24.97,269.843,11.625,99.945,-0.0025641
25.19,272.043,11.624,99.939,-0.0033864
25.41,274.244,11.623,99.932,-0.0032509
25.63,276.444,11.623,99.925,-0.0032539
25.85,278.644,11.622,99.917,-0.0035256
26.07,280.845,11.621,99.91,-0.0040344
26.29,283.045,11.62,99.901,-0.0041269
26.51,285.246,11.619,99.892,-0.0039858
26.73,287.446,11.618,99.883,-0.0044438
26.95,289.646,11.617,99.874,-0.0041224
27.17,291.847,11.616,99.864,-0.0048561
27.39,294.047,11.614,99.854,-0.0046270
27.61,296.248,11.613,99.842,-0.0053593
27.83,298.448,11.612,99.831,-0.0054945
28.05,300.648,11.61,99.819,-0.0054516
28.27,302.849,11.609,99.807,-0.0060005
28.49,305.049,11.607,99.794,-0.0054466
28.71,307.25,11.606,99.78,-0.0066392
28.93,309.45,11.604,99.766,-0.0064596
29.15,311.65,11.602,99.751,-0.0066429
29.37,313.851,11.601,99.736,-0.0066428
29.59,316.051,11.599,99.72,-0.0072504
29.82,318.251,11.597,99.704,-0.0073812
30.03,320.452,11.595,99.687,-0.0075508
30.26,322.652,11.593,99.67,-0.0080985
30.48,324.853,11.591,99.652,-0.0080999
30.69,327.053,11.589,99.633,-0.0081502
30.92,329.253,11.587,99.614,-0.0084707
31.13,331.454,11.584,99.595,-0.0092949
31.36,333.654,11.582,99.575,-0.0087454
31.58,335.855,11.58,99.555,-0.0091949
31.79,338.055,11.577,99.535,-0.0090003
32.02,340.255,11.575,99.515,-0.0092491
32.23,342.456,11.573,99.495,-0.0091492
32.45,344.656,11.57,99.474,-0.0093830
32.68,346.857,11.568,99.454,-0.0083409
32.89,349.057,11.566,99.435,-0.0088893
33.12,351.257,11.563,99.416,-0.0081383
33.33,353.458,11.561,99.397,-0.0085087
33.56,355.658,11.559,99.379,-0.0080586
33.78,357.859,11.557,99.361,-0.0082357
33.99,360.059,11.555,99.343,-0.0082875
34.21,362.259,11.553,99.325,-0.0081931
34.44,364.46,11.551,99.307,-0.0080586
34.66,366.66,11.549,99.289,-0.0083288
34.88,368.861,11.547,99.27,-0.0084707
35.09,371.061,11.544,99.251,-0.0091525
35.31,373.261,11.542,99.231,-0.0096066
35.54,375.462,11.54,99.21,-0.0096524
35.76,377.662,11.537,99.188,-0.0096700
35.98,379.862,11.534,99.165,-0.0107182
36.19,382.063,11.531,99.139,-0.0121270
36.41,384.263,11.528,99.112,-0.0134950
36.64,386.464,11.525,99.081,-0.0145015
36.86,388.664,11.521,99.047,-0.0161113
37.08,390.864,11.516,99.01,-0.0173993
37.29,393.065,11.512,98.97,-0.0185270
37.51,395.265,11.507,98.927,-0.0207342
37.74,397.466,11.501,98.88,-0.0219780
37.96,399.666,11.495,98.829,-0.0246202
38.18,401.866,11.489,98.773,-0.0265325
38.39,404.067,11.482,98.711,-0.0289675
38.61,406.267,11.474,98.644,-0.0323083
38.84,408.468,11.465,98.568,-0.0355901
39.06,410.668,11.455,98.484,-0.0403020
39.28,412.868,11.444,98.39,-0.0450595
39.49,415.069,11.432,98.285,-0.0508242
39.71,417.269,11.418,98.165,-0.0582418
39.94,419.47,11.402,98.029,-0.0667216
40.16,421.67,11.384,97.872,-0.0762898
40.38,423.87,11.363,97.691,-0.0881627
40.59,426.071,11.336,97.458,-0.1251610
40.81,428.271,11.298,97.132,-0.1642660
41.04,430.472,11.252,96.737,-0.1926000
41.26,432.672,11.199,96.281,-0.2323490
41.48,434.872,11.135,95.736,-0.2773560
41.69,437.073,11.06,95.088,-0.3207860
41.91,439.273,10.97,94.317,-0.3692580
42.14,441.473,10.872,93.473,-0.3886520
42.36,443.674,10.757,92.484,-0.5698320
42.58,445.874,10.607,91.196,-0.6274690
42.79,448.075,10.428,89.655,-0.7163740
43.01,450.275,10.207,87.753,-0.9758470
43.24,452.475,9.938,85.44,-1.08054
43.46,454.676,9.626,82.76,-1.42752
43.68,456.876,9.266,79.659,-1.58146
43.89,459.077,8.825,75.87,-1.79003
44.12,461.277,8.303,71.38,-2.22407
44.34,463.477,7.689,66.109,-2.60729
44.56,465.678,6.996,60.145,-2.90464
44.78,467.878,6.205,53.348,-3.09361
44.99,470.079,5.253,45.161,-3.87132
45.22,472.279,4.313,37.082,-3.54285
45.44,474.479,3.398,29.211,-3.46739
45.66,476.68,2.512,21.596,-2.69453
45.87,478.88,1.846,15.869,-2.45918
46.09,481.081,1.28,11.008,-1.94384
46.31,483.281,0.8710000,7.489,-1.25274
46.53,485.481,0.6210000,5.335,-0.6874140
46.75,487.682,0.4990000,4.294,-0.2975980
46.97,489.882,0.4570000,3.931,-0.0732220
47.19,492.083,0.4430000,3.81,-0.0454362
47.41,494.283,0.4350000,3.739,-0.0211822
47.64,496.483,0.4310000,3.709,-0.0083802
47.86,498.684,0.4300000,3.699,-0.0028515
48.08,500.884,0.4300000,3.695,-0.0006609
48.29,503.084,0.4300000,3.694,0.0000029
48.51,505.285,0.4300000,3.695,-0.0000057
48.74,507.485,0.4300000,3.695,0.0005843
48.96,509.686,0.4300000,3.696,0.0002842
49.17,511.886,0.4300000,3.696,0.0000444
49.39,514.086,0.4300000,3.696,0.0004472
49.61,516.287,0.4300000,3.697,0.0003076
49.83,518.487,0.4300000,3.697,0.0004660
50.05,520.688,0.4300000,3.697,0.0000557
50.27,522.888,0.4300000,3.698,0.0002011
50.49,525.088,0.4300000,3.698,0.0002773
50.71,527.289,0.4300000,3.699,0.0000343
50.93,529.489,0.4300000,3.699,0.0002230
51.15,531.69,0.4300000,3.699,-0.0000257
51.37,533.89,0.4300000,3.7,0.0000973
51.59,536.09,0.4300000,3.7,0.0004398
51.81,538.291,0.4300000,3.701,0.0002429
52.03,540.491,0.4300000,3.701,0.0000444
52.25,542.692,0.4310000,3.702,0.0002144
52.47,544.892,0.4310000,3.702,0.0004564
52.69,547.092,0.4310000,3.702,0.0003259
52.91,549.293,0.4310000,3.703,0.0004399
53.13,551.493,0.4310000,3.703,0.0005418
53.35,553.694,0.4310000,3.704,0.0004302
53.57,555.894,0.4310000,3.705,0.0004985
53.79,558.094,0.4310000,3.706,0.0002039
54.01,560.295,0.4310000,3.706,0.0006684
54.23,562.495,0.4310000,3.707,0.0003421
54.45,564.695,0.4310000,3.708,0.0002187
54.67,566.896,0.4310000,3.709,0.0000614
54.89,569.096,0.4320000,3.71,0.0001359
55.11,571.297,0.4320000,3.711,0.0007355
55.33,573.497,0.4320000,3.712,0.0001746
55.55,575.697,0.4320000,3.713,0.0005795
55.77,577.898,0.4320000,3.714,0.0005617
55.99,580.098,0.4320000,3.715,0.0007011
56.21,582.299,0.4320000,3.715,0.0007418
56.43,584.499,0.4320000,3.716,0.0005237
56.65,586.699,0.4320000,3.717,0.0002187
56.87,588.9,0.4320000,3.717,0.0001728
56.98,590,0.4320000,3.718,0.0005842