Folder: rHDPE_Data_Analysis/R/rHDPE_App/app/www/Output/TGA/Condensed_Data (part 13)

File: Resin11_0__1.csv
0.5600000,30,12.97,100.013,0.0053734
0.8800000,32.2004,12.971,100.024,-0.0006353
1.14,34.4008,12.972,100.029,0.0053425
1.39,36.6012,12.972,100.033,-0.0008139
1.63,38.8016,12.972,100.036,0.0022868
1.87,41.002,12.973,100.039,0.0002447
2.1,43.2024,12.973,100.041,0.0008739
2.34,45.4028,12.974,100.044,0.0008684
2.57,47.6031,12.974,100.047,0.0006696
2.8,49.8035,12.974,100.049,0.0010927
3.03,52.0039,12.975,100.052,0.0016069
3.25,54.2043,12.975,100.055,0.0006575
3.48,56.4047,12.975,100.057,0.0012164
3.7,58.6051,12.976,100.06,0.0012567
3.92,60.8055,12.976,100.062,0.0008823
4.15,63.0059,12.976,100.064,0.0010654
4.37,65.2063,12.976,100.066,0.0009709
4.59,67.4067,12.977,100.068,0.0006918
4.81,69.6071,12.977,100.07,0.0009660
5.03,71.8075,12.977,100.072,0.0006436
5.25,74.0079,12.977,100.073,0.0007810
5.48,76.2083,12.978,100.075,0.0008258
5.7,78.4086,12.978,100.076,0.0006413
5.91,80.609,12.978,100.077,0.0003664
6.14,82.8094,12.978,100.079,0.0003205
6.35,85.0098,12.978,100.08,0.0003662
6.58,87.2102,12.978,100.081,0.0003202
6.8,89.4106,12.978,100.081,0.0005950
7.02,91.611,12.978,100.082,0.0000000
7.24,93.8114,12.978,100.082,-0.0002286
7.45,96.0118,12.978,100.082,0.0004118
7.68,98.2122,12.978,100.082,0.0005490
7.9,100.413,12.978,100.082,0.0002745
8.11,102.613,12.978,100.082,0.0002744
8.34,104.813,12.978,100.082,-0.0005034
8.55,107.014,12.978,100.082,-0.0006406
8.78,109.214,12.978,100.082,-0.0001373
9,111.415,12.978,100.082,0.0000458
9.22,113.615,12.978,100.081,-0.0002291
9.43,115.815,12.978,100.081,-0.0003204
9.65,118.016,12.978,100.08,-0.0009165
9.88,120.216,12.978,100.08,-0.0003206
10.1,122.417,12.978,100.079,0.0000000
10.32,124.617,12.978,100.079,-0.0003208
10.53,126.817,12.978,100.078,-0.0001375
10.76,129.018,12.978,100.078,-0.0004588
10.98,131.218,12.978,100.077,-0.0000917
11.2,133.418,12.978,100.077,-0.0003664
11.42,135.619,12.978,100.077,-0.0003661
11.64,137.819,12.978,100.075,-0.0011415
11.85,140.02,12.977,100.071,-0.0024523
12.08,142.22,12.976,100.066,-0.0022659
12.29,144.42,12.976,100.061,-0.0022385
12.51,146.621,12.975,100.058,-0.0015169
12.73,148.821,12.975,100.055,-0.0010577
12.95,151.022,12.975,100.052,-0.0014253
13.18,153.222,12.974,100.049,-0.0015155
13.4,155.422,12.974,100.046,-0.0014665
13.62,157.623,12.973,100.043,-0.0013296
13.84,159.823,12.973,100.04,-0.0011916
14.06,162.024,12.973,100.037,-0.0010999
14.28,164.224,12.972,100.034,-0.0016512
14.5,166.424,12.972,100.03,-0.0014196
14.72,168.625,12.971,100.027,-0.0013287
14.94,170.825,12.971,100.024,-0.0017886
15.16,173.026,12.97,100.02,-0.0013746
15.38,175.226,12.97,100.017,-0.0019231
15.6,177.426,12.969,100.013,-0.0017415
15.82,179.627,12.969,100.009,-0.0017865
16.04,181.827,12.968,100.005,-0.0019228
16.26,184.028,12.968,100.001,-0.0014211
16.48,186.228,12.967,99.997,-0.0020178
16.7,188.428,12.967,99.992,-0.0021066
16.92,190.629,12.966,99.988,-0.0022032
17.14,192.829,12.966,99.984,-0.0021528
17.36,195.029,12.965,99.979,-0.0019697
17.58,197.23,12.965,99.975,-0.0022905
17.8,199.43,12.964,99.97,-0.0020169
18.02,201.631,12.963,99.965,-0.0023818
18.24,203.831,12.963,99.959,-0.0024705
18.46,206.031,12.962,99.954,-0.0021481
18.68,208.232,12.961,99.949,-0.0027478
18.9,210.432,12.96,99.943,-0.0029420
19.12,212.633,12.96,99.937,-0.0024305
19.34,214.833,12.959,99.931,-0.0024728
19.56,217.033,12.958,99.925,-0.0028388
19.78,219.234,12.957,99.919,-0.0026569
20,221.434,12.956,99.912,-0.0029326
20.23,223.635,12.956,99.906,-0.0029326
20.44,225.835,12.955,99.899,-0.0031588
20.67,228.035,12.954,99.892,-0.0033889
20.88,230.236,12.953,99.884,-0.0033907
21.11,232.436,12.952,99.877,-0.0035186
21.33,234.637,12.951,99.869,-0.0036139
21.54,236.837,12.95,99.861,-0.0039464
21.77,239.037,12.949,99.852,-0.0041724
21.99,241.238,12.948,99.844,-0.0040374
22.21,243.438,12.946,99.835,-0.0038838
22.43,245.639,12.945,99.826,-0.0040268
22.65,247.839,12.944,99.817,-0.0042645
22.87,250.039,12.943,99.807,-0.0043498
23.09,252.24,12.942,99.798,-0.0048526
23.31,254.44,12.94,99.788,-0.0047148
23.53,256.64,12.939,99.778,-0.0044913
23.75,258.841,12.938,99.768,-0.0044455
23.97,261.041,12.936,99.757,-0.0046677
24.19,263.242,12.935,99.746,-0.0050843
24.41,265.442,12.933,99.735,-0.0053640
24.63,267.642,12.932,99.724,-0.0052675
24.85,269.843,12.931,99.713,-0.0050413
25.07,272.043,12.929,99.701,-0.0052608
25.29,274.244,12.927,99.689,-0.0054996
25.51,276.444,12.926,99.677,-0.0053152
25.73,278.644,12.924,99.664,-0.0059066
25.95,280.845,12.923,99.652,-0.0056319
26.17,283.045,12.921,99.639,-0.0057692
26.39,285.246,12.919,99.626,-0.0059098
26.61,287.446,12.918,99.612,-0.0059949
26.83,289.646,12.916,99.599,-0.0060462
27.05,291.847,12.914,99.585,-0.0064150
27.27,294.047,12.912,99.571,-0.0062729
27.49,296.248,12.91,99.556,-0.0064596
27.71,298.448,12.908,99.542,-0.0067369
27.93,300.648,12.907,99.528,-0.0067344
28.15,302.849,12.905,99.512,-0.0072304
28.37,305.049,12.903,99.497,-0.0066850
28.59,307.25,12.901,99.482,-0.0069597
28.81,309.45,12.899,99.467,-0.0068223
29.03,311.65,12.897,99.451,-0.0072384
29.25,313.851,12.895,99.435,-0.0070055
29.47,316.051,12.893,99.42,-0.0073260
29.69,318.251,12.891,99.404,-0.0069687
29.91,320.452,12.888,99.388,-0.0070971
30.13,322.652,12.886,99.372,-0.0074148
30.35,324.853,12.884,99.355,-0.0074634
30.57,327.053,12.882,99.339,-0.0075688
30.79,329.253,12.88,99.322,-0.0077982
31.01,331.454,12.878,99.305,-0.0076423
31.23,333.654,12.875,99.288,-0.0076923
31.45,335.855,12.873,99.27,-0.0080543
31.67,338.055,12.871,99.253,-0.0078297
31.89,340.255,12.869,99.235,-0.0085118
32.11,342.456,12.866,99.216,-0.0082402
32.33,344.656,12.864,99.198,-0.0081442
32.55,346.857,12.861,99.179,-0.0089073
32.77,349.057,12.859,99.159,-0.0088025
32.99,351.257,12.856,99.14,-0.0088828
33.21,353.458,12.854,99.12,-0.0095238
33.43,355.658,12.851,99.099,-0.0093287
33.65,357.859,12.848,99.078,-0.0097035
33.87,360.059,12.845,99.056,-0.0099395
34.09,362.259,12.843,99.034,-0.0102965
34.31,364.46,12.84,99.011,-0.0106627
34.53,366.66,12.837,98.988,-0.0109392
34.75,368.861,12.833,98.964,-0.0111722
34.97,371.061,12.83,98.94,-0.0114469
35.19,373.261,12.827,98.914,-0.0119505
35.41,375.462,12.823,98.887,-0.0122756
35.63,377.662,12.82,98.859,-0.0125458
35.86,379.862,12.816,98.829,-0.0138863
36.08,382.063,12.812,98.798,-0.0148270
36.29,384.263,12.808,98.764,-0.0162397
36.51,386.464,12.803,98.727,-0.0182335
36.74,388.664,12.797,98.685,-0.0201007
36.95,390.864,12.791,98.64,-0.0215004
37.17,393.065,12.785,98.591,-0.0236418
37.39,395.265,12.778,98.536,-0.0262653
37.61,397.466,12.77,98.475,-0.0292743
37.83,399.666,12.761,98.407,-0.0327561
38.05,401.866,12.751,98.33,-0.0369625
38.27,404.067,12.74,98.244,-0.0416438
38.49,406.267,12.727,98.146,-0.0477585
38.71,408.468,12.713,98.032,-0.0560645
38.93,410.668,12.695,97.899,-0.0645250
39.15,412.868,12.675,97.744,-0.0769161
39.37,415.069,12.65,97.551,-0.1021050
39.59,417.269,12.616,97.285,-0.1343590
39.81,419.47,12.573,96.959,-0.1587210
40.03,421.67,12.525,96.583,-0.1791980
40.25,423.87,12.47,96.16,-0.2051950
40.47,426.071,12.406,95.669,-0.2414380
40.69,428.271,12.332,95.099,-0.2800730
40.91,430.472,12.247,94.438,-0.3172320
41.13,432.672,12.146,93.666,-0.3827560
41.35,434.872,12.028,92.754,-0.4376490
41.57,437.073,11.888,91.675,-0.5294140
41.79,439.273,11.724,90.405,-0.6335560
42.01,441.473,11.526,88.879,-0.7457420
42.23,443.674,11.294,87.09,-0.8808150
42.45,445.874,11.022,84.997,-1.05023
42.68,448.075,10.695,82.471,-1.27627
42.89,450.275,10.32,79.582,-1.39772
43.11,452.475,9.888,76.254,-1.66513
43.34,454.676,9.378,72.321,-1.84483
43.56,456.876,8.796,67.828,-2.20255
43.78,459.077,8.114,62.57,-2.61092
43.99,461.277,7.343,56.622,-2.8764
44.22,463.477,6.488,50.028,-3.07903
44.44,465.678,5.582,43.042,-3.38711
44.66,467.878,4.582,35.337,-3.62344
44.88,470.079,3.554,27.409,-3.51044
45.09,472.279,2.552,19.683,-3.42761
45.31,474.479,1.673,12.905,-2.84695
45.53,476.68,0.9890000,7.625,-2.01651
45.75,478.88,0.5160000,3.976,-1.24161
45.97,481.081,0.2670000,2.056,-0.5462080
46.19,483.281,0.1760000,1.359,-0.1261040
46.41,485.481,0.1600000,1.234,-0.0378957
46.63,487.682,0.1520000,1.175,-0.0170743
46.85,489.882,0.1490000,1.15,-0.0067977
47.08,492.083,0.1480000,1.14,-0.0031401
47.29,494.283,0.1470000,1.135,-0.0013102
47.51,496.483,0.1470000,1.133,-0.0010543
47.74,498.684,0.1470000,1.131,-0.0008617
47.96,500.884,0.1460000,1.129,-0.0007684
48.17,503.084,0.1460000,1.128,-0.0005866
48.39,505.285,0.1460000,1.127,-0.0003992
48.61,507.485,0.1460000,1.126,-0.0003024
48.83,509.686,0.1460000,1.125,-0.0006728
49.05,511.886,0.1460000,1.124,-0.0003658
49.27,514.086,0.1460000,1.123,-0.0000528
49.49,516.287,0.1460000,1.122,-0.0004657
49.71,518.487,0.1450000,1.121,-0.0003995
49.93,520.688,0.1450000,1.121,-0.0000952
50.15,522.888,0.1450000,1.12,-0.0003179
50.37,525.088,0.1450000,1.12,-0.0004851
50.59,527.289,0.1450000,1.119,-0.0002819
50.81,529.489,0.1450000,1.118,-0.0005025
51.03,531.69,0.1450000,1.117,-0.0003287
51.25,533.89,0.1450000,1.115,-0.0009740
51.47,536.09,0.1440000,1.114,-0.0000986
51.69,538.291,0.1440000,1.113,-0.0006452
51.91,540.491,0.1440000,1.111,-0.0013643
52.13,542.692,0.1440000,1.108,-0.0011799
52.35,544.892,0.1430000,1.104,-0.0014024
52.57,547.092,0.1430000,1.101,-0.0016641
52.79,549.293,0.1420000,1.097,-0.0017030
53.01,551.493,0.1420000,1.093,-0.0019109
53.23,553.694,0.1410000,1.089,-0.0018652
53.45,555.894,0.1410000,1.085,-0.0015450
53.67,558.094,0.1400000,1.082,-0.0024999
53.89,560.295,0.1400000,1.079,-0.0014273
54.11,562.495,0.1390000,1.076,-0.0014996
54.33,564.695,0.1390000,1.072,-0.0017894
54.55,566.896,0.1380000,1.068,-0.0017809
54.77,569.096,0.1380000,1.063,-0.0016913
54.99,571.297,0.1370000,1.058,-0.0019217
55.21,573.497,0.1370000,1.054,-0.0023876
55.43,575.697,0.1360000,1.05,-0.0020716
55.65,577.898,0.1360000,1.045,-0.0019703
55.87,580.098,0.1350000,1.041,-0.0025664
56.09,582.299,0.1340000,1.036,-0.0021940
56.31,584.499,0.1340000,1.031,-0.0023538
56.53,586.699,0.1330000,1.027,-0.0023395
56.75,588.9,0.1330000,1.024,-0.0008240
56.86,590,0.1330000,1.023,-0.0015364

File: Resin11_1__1.csv
0.6800000,30,10.997,100.014
0.9300000,31.9003,10.998,100.024
1.16,33.8007,10.999,100.032
1.38,35.701,10.999,100.039
1.59,37.6014,11,100.044
1.8,39.5017,11,100.049
2,41.402,11.001,100.053
2.2,43.3024,11.001,100.057
2.4,45.2027,11.002,100.06
2.6,47.1031,11.002,100.063
2.79,49.0034,11.002,100.067
2.99,50.9037,11.003,100.071
3.19,52.8041,11.003,100.074
3.38,54.7044,11.004,100.077
3.58,56.6048,11.004,100.08
3.77,58.5051,11.004,100.084
3.96,60.4054,11.005,100.087
4.15,62.3058,11.005,100.09
4.34,64.2061,11.005,100.093
4.54,66.1064,11.006,100.096
4.73,68.0068,11.006,100.099
4.92,69.9071,11.006,100.102
5.11,71.8075,11.007,100.104
5.3,73.7078,11.007,100.107
5.49,75.6081,11.007,100.11
5.68,77.5085,11.007,100.112
5.87,79.4088,11.008,100.114
6.06,81.3092,11.008,100.116
6.25,83.2095,11.008,100.118
6.44,85.1098,11.008,100.121
6.63,87.0102,11.009,100.123
6.82,88.9105,11.009,100.125
7.01,90.8109,11.009,100.127
7.2,92.7112,11.009,100.129
7.39,94.6115,11.009,100.131
7.58,96.5119,11.01,100.132
7.78,98.4122,11.01,100.134
7.96,100.313,11.01,100.135
8.15,102.213,11.01,100.137
8.35,104.113,11.01,100.138
8.53,106.014,11.01,100.139
8.72,107.914,11.01,100.139
8.91,109.814,11.01,100.14
9.1,111.715,11.011,100.14
9.29,113.615,11.011,100.141
9.48,115.515,11.011,100.142
9.67,117.416,11.011,100.142
9.86,119.316,11.011,100.144
10.05,121.216,11.011,100.144
10.24,123.117,11.011,100.143
10.43,125.017,11.011,100.142
10.62,126.917,11.011,100.142
10.81,128.818,11.011,100.142
11,130.718,11.011,100.142
11.19,132.618,11.011,100.142
11.38,134.519,11.011,100.142
11.57,136.419,11.011,100.143
11.76,138.319,11.011,100.143
11.95,140.22,11.011,100.142
12.15,142.12,11.011,100.143
12.33,144.02,11.011,100.143
12.53,145.921,11.011,100.143
12.71,147.821,11.011,100.143
12.9,149.721,11.011,100.144
13.1,151.622,11.011,100.144
13.28,153.522,11.011,100.142
13.47,155.422,11.01,100.138
13.66,157.323,11.01,100.134
13.85,159.223,11.009,100.13
14.04,161.123,11.009,100.127
14.23,163.024,11.009,100.124
14.42,164.924,11.009,100.122
14.61,166.824,11.008,100.121
14.8,168.725,11.008,100.119
14.99,170.625,11.008,100.117
15.18,172.525,11.008,100.115
15.37,174.426,11.008,100.113
15.56,176.326,11.007,100.111
15.75,178.226,11.007,100.109
15.94,180.127,11.007,100.107
16.13,182.027,11.007,100.105
16.33,183.927,11.006,100.103
16.52,185.828,11.006,100.101
16.71,187.728,11.006,100.098
16.9,189.629,11.006,100.096
17.09,191.529,11.005,100.094
17.28,193.429,11.005,100.091
17.48,195.33,11.005,100.089
17.68,197.23,11.005,100.087
17.86,199.13,11.004,100.084
18.04,201.031,11.004,100.08
18.23,202.931,11.004,100.077
18.42,204.831,11.003,100.074
18.61,206.732,11.003,100.07
18.8,208.632,11.002,100.066
18.99,210.532,11.002,100.063
19.18,212.433,11.002,100.059
19.37,214.333,11.001,100.055
19.56,216.233,11.001,100.052
19.75,218.134,11,100.048
19.94,220.034,11,100.044
20.13,221.934,11,100.04
20.32,223.835,10.999,100.036
20.51,225.735,10.999,100.032
20.7,227.635,10.998,100.028
20.89,229.536,10.998,100.023
21.09,231.436,10.997,100.019
21.28,233.336,10.997,100.015
21.47,235.237,10.996,100.01
21.66,237.137,10.996,100.005
21.85,239.037,10.995,100.001
22.04,240.938,10.995,99.996
22.23,242.838,10.994,99.991
22.41,244.738,10.994,99.985
22.59,246.639,10.993,99.98
22.79,248.539,10.992,99.974
22.98,250.439,10.992,99.968
23.17,252.34,10.991,99.962
23.36,254.24,10.99,99.956
23.55,256.14,10.99,99.95
23.74,258.041,10.989,99.943
23.94,259.941,10.988,99.937
24.12,261.841,10.987,99.93
24.31,263.742,10.987,99.923
24.51,265.642,10.986,99.917
24.69,267.542,10.985,99.909
24.89,269.443,10.984,99.901
25.08,271.343,10.983,99.894
25.27,273.243,10.983,99.887
25.46,275.144,10.982,99.879
25.65,277.044,10.981,99.871
25.84,278.944,10.98,99.863
26.03,280.845,10.979,99.855
26.22,282.745,10.978,99.847
26.41,284.645,10.977,99.838
26.6,286.546,10.976,99.83
26.79,288.446,10.976,99.822
26.98,290.346,10.975,99.813
27.16,292.247,10.974,99.804
27.34,294.147,10.973,99.796
27.53,296.048,10.972,99.786
27.73,297.948,10.971,99.777
27.92,299.848,10.97,99.768
28.11,301.749,10.969,99.758
28.3,303.649,10.967,99.748
28.49,305.549,10.966,99.739
28.69,307.45,10.965,99.729
28.88,309.35,10.964,99.719
29.07,311.25,10.963,99.708
29.26,313.151,10.962,99.697
29.45,315.051,10.961,99.687
29.63,316.951,10.959,99.676
29.83,318.852,10.958,99.665
30.02,320.752,10.957,99.654
30.21,322.652,10.956,99.642
30.4,324.553,10.955,99.631
30.59,326.453,10.953,99.62
30.78,328.353,10.952,99.608
30.97,330.254,10.951,99.596
31.16,332.154,10.949,99.584
31.35,334.054,10.948,99.572
31.54,335.955,10.947,99.56
31.73,337.855,10.945,99.548
31.92,339.755,10.944,99.536
32.11,341.656,10.943,99.523
32.3,343.556,10.941,99.512
32.49,345.456,10.94,99.499
32.68,347.357,10.939,99.486
32.88,349.257,10.937,99.473
33.07,351.157,10.936,99.46
33.27,353.058,10.934,99.446
33.46,354.958,10.933,99.434
33.64,356.858,10.931,99.421
33.83,358.759,10.93,99.408
34.02,360.659,10.929,99.395
34.2,362.559,10.927,99.381
34.39,364.46,10.926,99.368
34.57,366.36,10.924,99.355
34.76,368.26,10.923,99.341
34.95,370.161,10.921,99.327
35.14,372.061,10.92,99.313
35.34,373.961,10.918,99.299
35.53,375.862,10.916,99.285
35.72,377.762,10.915,99.27
35.91,379.662,10.913,99.256
36.1,381.563,10.912,99.241
36.3,383.463,10.91,99.226
36.48,385.363,10.908,99.211
36.67,387.264,10.907,99.196
36.86,389.164,10.905,99.18
37.05,391.064,10.903,99.164
37.24,392.965,10.901,99.147
37.43,394.865,10.9,99.13
37.62,396.765,10.898,99.113
37.81,398.666,10.896,99.096
38,400.566,10.894,99.078
38.19,402.467,10.892,99.06
38.38,404.367,10.89,99.042
38.57,406.267,10.888,99.022
38.76,408.168,10.886,99.003
38.95,410.068,10.883,98.983
39.13,411.968,10.881,98.963
39.32,413.869,10.879,98.941
39.52,415.769,10.876,98.918
39.71,417.669,10.874,98.896
39.9,419.57,10.871,98.871
40.09,421.47,10.868,98.845
40.29,423.37,10.865,98.816
40.48,425.271,10.862,98.785
40.67,427.171,10.858,98.752
40.85,429.071,10.854,98.718
41.04,430.972,10.85,98.68
41.22,432.872,10.846,98.641
41.41,434.772,10.841,98.597
41.6,436.673,10.836,98.552
41.79,438.573,10.83,98.501
41.99,440.473,10.824,98.445
42.18,442.374,10.818,98.385
42.37,444.274,10.81,98.319
42.56,446.174,10.802,98.247
42.75,448.075,10.793,98.165
42.94,449.975,10.784,98.076
43.13,451.875,10.773,97.976
43.32,453.776,10.76,97.864
43.51,455.676,10.746,97.736
43.7,457.576,10.73,97.593
43.89,459.477,10.713,97.43
44.08,461.377,10.69,97.226
44.27,463.277,10.661,96.957
44.46,465.178,10.625,96.632
44.65,467.078,10.586,96.281
44.84,468.978,10.542,95.878
45.03,470.879,10.49,95.407
45.22,472.779,10.43,94.864
45.41,474.679,10.362,94.246
45.6,476.58,10.282,93.511
45.79,478.48,10.188,92.66
45.98,480.38,10.08,91.681
46.17,482.281,9.955,90.539
46.36,484.181,9.805,89.174
46.55,486.081,9.639,87.665
46.74,487.982,9.436,85.823
46.93,489.882,9.22,83.856
47.12,491.782,8.976,81.64
47.31,493.683,8.692,79.051
47.5,495.583,8.368,76.111
47.7,497.483,8.004,72.8
47.88,499.384,7.608,69.197
48.06,501.284,7.167,65.185
48.25,503.184,6.658,60.555
48.44,505.085,6.092,55.405
48.63,506.985,5.495,49.978
48.83,508.886,4.864,44.242
49.02,510.786,4.196,38.163
49.21,512.686,3.474,31.595
49.4,514.587,2.821,25.654
49.59,516.487,2.166,19.701
49.78,518.387,1.568,14.262
49.97,520.288,1.041,9.465
50.16,522.188,0.6400000,5.822
50.35,524.088,0.3630000,3.303
50.54,525.989,0.2180000,1.981
50.72,527.889,0.1620000,1.475
50.91,529.789,0.1490000,1.351
51.11,531.69,0.1410000,1.281
51.3,533.59,0.1370000,1.248
51.49,535.49,0.1360000,1.233
51.68,537.391,0.1350000,1.226
51.87,539.291,0.1350000,1.223
52.06,541.191,0.1340000,1.221
52.25,543.092,0.1340000,1.22
52.44,544.992,0.1340000,1.219
52.63,546.892,0.1340000,1.218
52.82,548.793,0.1340000,1.217
53.01,550.693,0.1340000,1.216
53.19,552.593,0.1340000,1.215
53.39,554.494,0.1340000,1.215
53.58,556.394,0.1330000,1.213
53.77,558.294,0.1330000,1.212
53.96,560.195,0.1330000,1.211
54.16,562.095,0.1330000,1.21
54.35,563.995,0.1330000,1.209
54.54,565.896,0.1330000,1.209
54.73,567.796,0.1330000,1.208
54.91,569.696,0.1330000,1.207
55.1,571.597,0.1330000,1.206
55.29,573.497,0.1330000,1.205
55.48,575.397,0.1320000,1.204
55.66,577.298,0.1320000,1.203
55.86,579.198,0.1320000,1.202
56.05,581.098,0.1320000,1.2
56.24,582.999,0.1320000,1.199
56.44,584.899,0.1320000,1.197
56.63,586.799,0.1310000,1.195
56.81,588.7,0.1310000,1.193
56.95,590,0.1310000,1.192