Folder: rHDPE_Data_Analysis/R/rHDPE_App/app/www/Output/TGA/Condensed_Data (part 22)

File: Resin20_0__1.csv
0.8300000,30,16.178,100.017,0.0012734
1.11,32.3004,16.18,100.025,-0.0001062
1.37,34.6008,16.18,100.03,0.0022439
1.63,36.9012,16.181,100.034,0.0001494
1.87,39.2016,16.182,100.038,0.0010765
2.12,41.5021,16.182,100.041,0.0015486
2.36,43.8025,16.183,100.044,0.0014423
2.6,46.1029,16.183,100.047,0.0012415
2.84,48.4033,16.184,100.05,0.0014227
3.08,50.7037,16.184,100.054,0.0014143
3.31,53.0041,16.185,100.057,0.0012664
3.55,55.3045,16.185,100.06,0.0016362
3.78,57.6049,16.186,100.063,0.0014430
4.02,59.9053,16.186,100.066,0.0016230
4.25,62.2058,16.187,100.069,0.0012023
4.48,64.5062,16.187,100.071,0.0010147
4.71,66.8066,16.187,100.074,0.0008751
4.95,69.107,16.188,100.076,0.0013804
5.18,71.4074,16.188,100.078,0.0010570
5.41,73.7078,16.188,100.08,0.0009634
5.64,76.0082,16.189,100.083,0.0008712
5.87,78.3086,16.189,100.084,0.0006874
6.1,80.609,16.189,100.086,0.0008704
6.33,82.9094,16.19,100.088,0.0008701
6.56,85.2099,16.19,100.089,0.0005954
6.79,87.5103,16.19,100.091,0.0004118
7.02,89.8107,16.19,100.092,0.0007320
7.25,92.1111,16.191,100.094,0.0005035
7.48,94.4115,16.191,100.095,0.0003661
7.71,96.7119,16.191,100.096,0.0005495
7.94,99.0123,16.191,100.097,0.0003660
8.17,101.313,16.191,100.097,0.0000915
8.4,103.613,16.191,100.098,0.0002747
8.63,105.914,16.191,100.099,0.0004124
8.86,108.214,16.191,100.099,0.0000916
9.09,110.514,16.192,100.099,-0.0003204
9.32,112.815,16.192,100.099,0.0002290
9.55,115.115,16.192,100.099,-0.0001374
9.78,117.416,16.191,100.099,0.0000000
10.01,119.716,16.191,100.099,-0.0000916
10.24,122.016,16.191,100.099,-0.0002749
10.47,124.317,16.191,100.098,-0.0004130
10.7,126.617,16.191,100.098,0.0000000
10.93,128.918,16.191,100.098,0.0000000
11.16,131.218,16.191,100.098,0.0000000
11.39,133.518,16.191,100.098,0.0000000
11.62,135.819,16.191,100.097,-0.0005492
11.85,138.119,16.191,100.096,-0.0003658
12.08,140.42,16.191,100.095,-0.0008680
12.31,142.72,16.19,100.093,-0.0011863
12.54,145.021,16.19,100.089,-0.0018606
12.77,147.321,16.189,100.084,-0.0023525
13,149.621,16.188,100.078,-0.0025496
13.23,151.922,16.187,100.073,-0.0023412
13.46,154.222,16.186,100.068,-0.0017977
13.69,156.523,16.186,100.063,-0.0017989
13.92,158.823,16.185,100.059,-0.0021185
14.15,161.123,16.184,100.054,-0.0018396
14.38,163.424,16.183,100.05,-0.0021591
14.61,165.724,16.183,100.045,-0.0022477
14.84,168.025,16.182,100.039,-0.0022921
15.07,170.325,16.181,100.034,-0.0022450
15.3,172.625,16.18,100.028,-0.0028396
15.53,174.926,16.179,100.022,-0.0027498
15.76,177.226,16.178,100.016,-0.0022459
16,179.527,16.177,100.009,-0.0026130
16.23,181.827,16.176,100.002,-0.0031150
16.45,184.128,16.175,99.995,-0.0030689
16.68,186.428,16.174,99.988,-0.0032970
16.92,188.728,16.172,99.981,-0.0035259
17.14,191.029,16.171,99.973,-0.0030683
17.38,193.329,16.17,99.965,-0.0033440
17.61,195.63,16.168,99.957,-0.0038472
17.83,197.93,16.167,99.948,-0.0036677
18.07,200.23,16.166,99.94,-0.0036670
18.3,202.531,16.164,99.931,-0.0041239
18.53,204.831,16.163,99.922,-0.0039381
18.76,207.132,16.161,99.913,-0.0040304
18.99,209.432,16.16,99.903,-0.0040770
19.22,211.732,16.158,99.894,-0.0040799
19.45,214.033,16.157,99.884,-0.0041258
19.68,216.333,16.155,99.874,-0.0042594
19.91,218.634,16.154,99.864,-0.0043080
20.14,220.934,16.152,99.855,-0.0040330
20.37,223.235,16.15,99.844,-0.0043095
20.6,225.535,16.149,99.834,-0.0042194
20.83,227.835,16.147,99.824,-0.0045359
21.06,230.136,16.145,99.814,-0.0045372
21.29,232.436,16.144,99.803,-0.0043510
21.52,234.737,16.142,99.793,-0.0049015
21.75,237.037,16.14,99.782,-0.0046267
21.98,239.337,16.139,99.772,-0.0045800
22.21,241.638,16.137,99.761,-0.0048099
22.44,243.938,16.135,99.75,-0.0046267
22.67,246.239,16.133,99.74,-0.0048548
22.9,248.539,16.132,99.729,-0.0045804
23.13,250.839,16.13,99.718,-0.0048108
23.36,253.14,16.128,99.707,-0.0046250
23.59,255.44,16.126,99.696,-0.0047170
23.82,257.741,16.124,99.684,-0.0049451
24.05,260.041,16.123,99.673,-0.0049496
24.28,262.341,16.121,99.661,-0.0048562
24.51,264.642,16.119,99.65,-0.0053162
24.74,266.942,16.117,99.638,-0.0049478
24.97,269.243,16.115,99.626,-0.0048041
25.2,271.543,16.113,99.614,-0.0052656
25.43,273.844,16.111,99.602,-0.0049496
25.66,276.144,16.109,99.589,-0.0054517
25.89,278.444,16.107,99.577,-0.0053571
26.13,280.745,16.105,99.564,-0.0051311
26.36,283.045,16.103,99.551,-0.0055433
26.58,285.346,16.101,99.539,-0.0054516
26.82,287.646,16.099,99.526,-0.0058150
27.04,289.946,16.097,99.513,-0.0058608
27.28,292.247,16.095,99.5,-0.0060495
27.51,294.547,16.092,99.486,-0.0061355
27.73,296.848,16.09,99.473,-0.0058608
27.97,299.148,16.088,99.46,-0.0058150
28.19,301.448,16.086,99.447,-0.0055403
28.43,303.749,16.084,99.434,-0.0055433
28.66,306.049,16.082,99.42,-0.0059524
28.88,308.35,16.08,99.407,-0.0060003
29.12,310.65,16.077,99.393,-0.0061322
29.35,312.951,16.075,99.38,-0.0059066
29.58,315.251,16.073,99.366,-0.0056797
29.81,317.551,16.071,99.353,-0.0060897
30.04,319.852,16.069,99.339,-0.0061300
30.27,322.152,16.066,99.325,-0.0062214
30.5,324.453,16.064,99.311,-0.0064103
30.73,326.753,16.062,99.297,-0.0061411
30.96,329.053,16.059,99.282,-0.0063233
31.19,331.354,16.057,99.268,-0.0065536
31.42,333.654,16.055,99.252,-0.0065079
31.65,335.955,16.052,99.237,-0.0065910
31.88,338.255,16.05,99.222,-0.0068173
32.11,340.555,16.047,99.206,-0.0070081
32.34,342.856,16.045,99.191,-0.0067766
32.57,345.156,16.042,99.174,-0.0067270
32.8,347.457,16.039,99.158,-0.0070932
33.03,349.757,16.037,99.142,-0.0068186
33.26,352.058,16.034,99.126,-0.0070043
33.49,354.358,16.031,99.11,-0.0070996
33.72,356.658,16.029,99.094,-0.0065018
33.95,358.959,16.026,99.078,-0.0068161
34.18,361.259,16.024,99.061,-0.0075092
34.41,363.56,16.021,99.045,-0.0075064
34.64,365.86,16.018,99.027,-0.0079212
34.87,368.16,16.015,99.009,-0.0075577
35.1,370.461,16.012,98.99,-0.0081915
35.33,372.761,16.009,98.97,-0.0087422
35.56,375.062,16.006,98.95,-0.0092558
35.79,377.362,16.002,98.928,-0.0094919
36.02,379.662,15.998,98.906,-0.0096206
36.25,381.963,15.995,98.883,-0.0098119
36.48,384.263,15.991,98.859,-0.0105897
36.71,386.564,15.987,98.834,-0.0114717
36.94,388.864,15.983,98.808,-0.0121226
37.17,391.164,15.978,98.779,-0.0128592
37.4,393.465,15.973,98.747,-0.0140671
37.63,395.765,15.967,98.713,-0.0152613
37.86,398.066,15.961,98.677,-0.0163123
38.09,400.366,15.955,98.637,-0.0180403
38.32,402.667,15.948,98.594,-0.0196429
38.55,404.967,15.94,98.547,-0.0215005
38.78,407.267,15.932,98.497,-0.0226524
39.01,409.568,15.924,98.443,-0.0243914
39.24,411.868,15.914,98.384,-0.0270047
39.47,414.169,15.904,98.319,-0.0299743
39.7,416.469,15.892,98.246,-0.0335923
39.93,418.769,15.878,98.163,-0.0387149
40.16,421.07,15.863,98.068,-0.0438485
40.39,423.37,15.845,97.958,-0.0519040
40.62,425.671,15.824,97.829,-0.0604757
40.85,427.971,15.798,97.669,-0.0805110
41.08,430.271,15.762,97.446,-0.1118540
41.31,432.572,15.715,97.155,-0.1375280
41.54,434.872,15.656,96.79,-0.1768200
41.77,437.173,15.582,96.329,-0.2195230
42,439.473,15.485,95.734,-0.2946540
42.23,441.774,15.365,94.99,-0.3516590
42.46,444.074,15.214,94.058,-0.4909840
42.69,446.374,15.016,92.833,-0.5875040
42.92,448.675,14.785,91.404,-0.5809150
43.15,450.975,14.53,89.826,-0.7668010
43.38,453.276,14.204,87.812,-0.9104670
43.61,455.576,13.824,85.463,-1.111
43.84,457.876,13.364,82.617,-1.4024
44.07,460.177,12.81,79.193,-1.71407
44.3,462.477,12.152,75.125,-1.93185
44.53,464.778,11.383,70.372,-2.23048
44.76,467.078,10.498,64.903,-2.50925
44.99,469.378,9.502,58.744,-2.89379
45.22,471.679,8.388,51.857,-3.16398
45.45,473.979,7.171,44.335,-3.32028
45.68,476.28,5.863,36.248,-3.5199
45.91,478.58,4.535,28.038,-3.58805
46.14,480.881,3.248,20.078,-3.28512
46.37,483.181,2.101,12.992,-2.82709
46.59,485.481,1.192,7.372,-2.05482
46.82,487.782,0.5940000,3.67,-1.14517
47.05,490.082,0.3070000,1.898,-0.4648810
47.28,492.383,0.2040000,1.264,-0.1337550
47.51,494.683,0.1790000,1.107,-0.0399339
47.74,496.983,0.1680000,1.038,-0.0193725
47.98,499.284,0.1630000,1.01,-0.0065818
48.21,501.584,0.1620000,1.001,-0.0027333
48.44,503.885,0.1610000,0.9970000,-0.0011780
48.67,506.185,0.1610000,0.9950000,-0.0004709
48.9,508.485,0.1610000,0.9940000,-0.0003123
49.13,510.786,0.1610000,0.9940000,-0.0001228
49.36,513.086,0.1610000,0.9930000,-0.0001143
49.59,515.387,0.1600000,0.9920000,-0.0004078
49.82,517.687,0.1600000,0.9910000,-0.0002051
50.04,519.987,0.1600000,0.9910000,-0.0005245
50.28,522.288,0.1600000,0.9900000,-0.0003209
50.51,524.588,0.1600000,0.9890000,-0.0005161
50.74,526.889,0.1600000,0.9880000,-0.0003766
50.96,529.189,0.1600000,0.9870000,-0.0006117
51.19,531.49,0.1600000,0.9860000,-0.0000332
51.43,533.79,0.1590000,0.9860000,-0.0001648
51.66,536.09,0.1590000,0.9850000,-0.0002974
51.89,538.391,0.1590000,0.9840000,-0.0004015
52.11,540.691,0.1590000,0.9830000,-0.0002483
52.34,542.992,0.1590000,0.9820000,-0.0006437
52.58,545.292,0.1590000,0.9800000,-0.0002326
52.81,547.592,0.1580000,0.9790000,-0.0005096
53.04,549.893,0.1580000,0.9780000,-0.0002219
53.26,552.193,0.1580000,0.9770000,-0.0005009
53.49,554.494,0.1580000,0.9760000,-0.0004935
53.72,556.794,0.1580000,0.9750000,-0.0005112
53.95,559.094,0.1570000,0.9740000,-0.0005202
54.18,561.395,0.1570000,0.9720000,-0.0004472
54.41,563.695,0.1570000,0.9710000,-0.0007530
54.64,565.996,0.1570000,0.9690000,-0.0005613
54.87,568.296,0.1570000,0.9680000,-0.0007758
55.1,570.597,0.1560000,0.9670000,-0.0005556
55.33,572.897,0.1560000,0.9660000,-0.0007133
55.56,575.197,0.1560000,0.9640000,-0.0005914
55.79,577.498,0.1560000,0.9630000,-0.0006530
56.02,579.798,0.1560000,0.9620000,-0.0007691
56.25,582.099,0.1550000,0.9600000,-0.0006214
56.48,584.399,0.1550000,0.9590000,-0.0008102
56.71,586.699,0.1550000,0.9570000,-0.0009391
56.94,589,0.1550000,0.9550000,-0.0009497
57.04,590,0.1540000,0.9540000,-0.0006191

File: Resin20_1_.csv
1.01,30,11.658,100.031,0.0069590
1.28,32.3004,11.659,100.039,0.0038392
1.53,34.6008,11.659,100.045,0.0011039
1.78,36.9012,11.66,100.05,0.0028035
2.03,39.2016,11.661,100.055,0.0018991
2.27,41.5021,11.661,100.058,0.0018358
2.51,43.8025,11.661,100.063,0.0013917
2.76,46.1029,11.662,100.067,0.0013821
2.99,48.4033,11.663,100.072,0.0018928
3.23,50.7037,11.663,100.076,0.0027757
3.47,53.0041,11.664,100.081,0.0024823
3.7,55.3045,11.664,100.085,0.0013537
3.94,57.6049,11.665,100.089,0.0024659
4.17,59.9053,11.665,100.092,0.0017614
4.4,62.2058,11.665,100.094,0.0003692
4.64,64.5062,11.666,100.098,0.0020831
4.87,66.8066,11.666,100.102,0.0014301
5.1,69.107,11.666,100.105,0.0015601
5.33,71.4074,11.667,100.107,0.0010508
5.56,73.7078,11.667,100.11,0.0021152
5.79,76.0082,11.667,100.114,0.0014227
6.02,78.3086,11.668,100.116,0.0016474
6.25,80.609,11.668,100.117,0.0015533
6.48,82.9094,11.668,100.12,0.0002752
6.71,85.2099,11.668,100.122,0.0017877
6.94,87.5103,11.669,100.123,0.0006384
7.17,89.8107,11.669,100.125,0.0002289
7.4,92.1111,11.669,100.126,0.0005943
7.63,94.4115,11.669,100.127,0.0010530
7.86,96.7119,11.669,100.128,0.0007797
8.09,99.0123,11.669,100.129,0.0002749
8.32,101.313,11.669,100.13,0.0003666
8.55,103.613,11.669,100.13,-0.0003206
8.78,105.914,11.669,100.131,0.0005950
9.01,108.214,11.67,100.132,0.0005500
9.24,110.514,11.67,100.132,0.0002744
9.47,112.815,11.67,100.132,-0.0000915
9.7,115.115,11.67,100.132,-0.0000459
9.93,117.416,11.67,100.132,-0.0005498
10.16,119.716,11.67,100.132,-0.0004129
10.39,122.016,11.67,100.132,-0.0005501
10.62,124.317,11.67,100.132,0.0003207
10.85,126.617,11.67,100.132,-0.0000000
11.08,128.918,11.67,100.133,0.0000916
11.31,131.218,11.67,100.133,0.0000000
11.54,133.518,11.67,100.132,-0.0011886
11.77,135.819,11.669,100.131,-0.0015508
12,138.119,11.669,100.127,-0.0025431
12.23,140.42,11.668,100.121,-0.0017725
12.46,142.72,11.668,100.116,-0.0010055
12.69,145.021,11.667,100.112,-0.0015607
12.92,147.321,11.667,100.109,-0.0018817
13.15,149.621,11.666,100.105,-0.0010645
13.38,151.922,11.666,100.102,-0.0014697
13.61,154.222,11.666,100.099,-0.0013717
13.84,156.523,11.665,100.096,-0.0018303
14.07,158.823,11.665,100.093,-0.0019702
14.3,161.123,11.665,100.089,-0.0019246
14.53,163.424,11.664,100.084,-0.0019252
14.76,165.724,11.663,100.08,-0.0024732
14.99,168.025,11.663,100.075,-0.0020159
15.22,170.325,11.662,100.07,-0.0021540
15.45,172.625,11.662,100.065,-0.0026104
15.68,174.926,11.661,100.059,-0.0026574
15.91,177.226,11.66,100.053,-0.0025653
16.14,179.527,11.66,100.047,-0.0027982
16.37,181.827,11.659,100.041,-0.0026116
16.6,184.128,11.658,100.034,-0.0030275
16.83,186.428,11.657,100.027,-0.0037146
17.07,188.728,11.657,100.02,-0.0034799
17.29,191.029,11.656,100.013,-0.0029754
17.53,193.329,11.655,100.006,-0.0034319
17.76,195.63,11.654,99.998,-0.0031122
17.98,197.93,11.653,99.99,-0.0032979
18.22,200.23,11.652,99.982,-0.0040759
18.45,202.531,11.651,99.974,-0.0038021
18.68,204.831,11.65,99.966,-0.0028846
18.91,207.132,11.649,99.957,-0.0042171
19.14,209.432,11.648,99.949,-0.0041648
19.37,211.732,11.647,99.94,-0.0035273
19.6,214.033,11.646,99.931,-0.0043575
19.83,216.333,11.645,99.922,-0.0041732
20.06,218.634,11.644,99.913,-0.0039443
20.29,220.934,11.643,99.904,-0.0044484
20.52,223.235,11.642,99.894,-0.0038073
20.75,225.535,11.641,99.885,-0.0043080
20.98,227.835,11.64,99.875,-0.0038937
21.21,230.136,11.639,99.865,-0.0043494
21.44,232.436,11.637,99.856,-0.0048580
21.67,234.737,11.636,99.845,-0.0040762
21.9,237.037,11.635,99.835,-0.0044421
22.13,239.337,11.634,99.825,-0.0045817
22.36,241.638,11.633,99.815,-0.0048143
22.59,243.938,11.631,99.805,-0.0044913
22.82,246.239,11.63,99.794,-0.0043550
23.05,248.539,11.629,99.784,-0.0046725
23.28,250.839,11.628,99.773,-0.0050399
23.51,253.14,11.626,99.762,-0.0046725
23.74,255.44,11.625,99.751,-0.0052189
23.97,257.741,11.624,99.74,-0.0049451
24.2,260.041,11.623,99.729,-0.0049983
24.43,262.341,11.621,99.717,-0.0056370
24.66,264.642,11.62,99.706,-0.0049954
24.89,266.942,11.619,99.694,-0.0046677
25.12,269.243,11.617,99.682,-0.0051226
25.35,271.543,11.616,99.67,-0.0054029
25.58,273.844,11.614,99.658,-0.0055505
25.82,276.144,11.613,99.645,-0.0054059
26.04,278.444,11.611,99.633,-0.0059066
26.28,280.745,11.61,99.62,-0.0054945
26.51,283.045,11.608,99.607,-0.0057266
26.73,285.346,11.607,99.595,-0.0055912
26.97,287.646,11.605,99.582,-0.0058662
27.19,289.946,11.604,99.569,-0.0061388
27.43,292.247,11.602,99.556,-0.0061412
27.66,294.547,11.601,99.543,-0.0053611
27.88,296.848,11.599,99.53,-0.0060004
28.12,299.148,11.598,99.517,-0.0055861
28.35,301.448,11.596,99.504,-0.0054029
28.58,303.749,11.595,99.491,-0.0056341
28.81,306.049,11.593,99.478,-0.0059098
29.04,308.35,11.592,99.465,-0.0059066
29.27,310.65,11.59,99.452,-0.0063234
29.5,312.951,11.589,99.439,-0.0057735
29.73,315.251,11.587,99.426,-0.0053571
29.96,317.551,11.586,99.413,-0.0061355
30.19,319.852,11.584,99.399,-0.0066368
30.42,322.152,11.583,99.386,-0.0059556
30.65,324.453,11.581,99.372,-0.0063129
30.88,326.753,11.579,99.358,-0.0056777
31.11,329.053,11.578,99.344,-0.0057725
31.34,331.354,11.576,99.33,-0.0064103
31.57,333.654,11.574,99.316,-0.0060440
31.8,335.955,11.573,99.301,-0.0057203
32.03,338.255,11.571,99.287,-0.0064560
32.26,340.555,11.569,99.272,-0.0055372
32.49,342.856,11.568,99.257,-0.0061835
32.72,345.156,11.566,99.242,-0.0062695
32.95,347.457,11.564,99.227,-0.0068618
33.18,349.757,11.562,99.211,-0.0065934
33.41,352.058,11.56,99.195,-0.0069190
33.64,354.358,11.558,99.179,-0.0067766
33.87,356.658,11.557,99.162,-0.0070552
34.1,358.959,11.555,99.145,-0.0076007
34.33,361.259,11.553,99.128,-0.0072802
34.56,363.56,11.551,99.111,-0.0077796
34.79,365.86,11.548,99.092,-0.0082875
35.02,368.16,11.546,99.073,-0.0086127
35.25,370.461,11.544,99.053,-0.0084326
35.48,372.761,11.541,99.032,-0.0090450
35.71,375.062,11.539,99.011,-0.0094954
35.94,377.362,11.536,98.988,-0.0097591
36.17,379.662,11.534,98.965,-0.0107331
36.4,381.963,11.531,98.94,-0.0111770
36.63,384.263,11.528,98.913,-0.0115779
36.86,386.564,11.524,98.885,-0.0126374
37.09,388.864,11.521,98.855,-0.0136829
37.32,391.164,11.517,98.823,-0.0145333
37.55,393.465,11.513,98.788,-0.0160403
37.78,395.765,11.508,98.75,-0.0172778
38.01,398.066,11.504,98.708,-0.0190934
38.24,400.366,11.498,98.661,-0.0213370
38.47,402.667,11.492,98.61,-0.0238880
38.7,404.967,11.485,98.553,-0.0254121
38.93,407.267,11.478,98.489,-0.0290484
39.16,409.568,11.47,98.419,-0.0321429
39.39,411.868,11.461,98.341,-0.0349497
39.62,414.169,11.451,98.255,-0.0399963
39.85,416.469,11.439,98.156,-0.0456581
40.08,418.769,11.426,98.042,-0.0535062
40.31,421.07,11.41,97.908,-0.0641731
40.54,423.37,11.392,97.747,-0.0765783
40.77,425.671,11.368,97.546,-0.0985822
41,427.971,11.335,97.264,-0.1536660
41.23,430.271,11.291,96.881,-0.1665920
41.46,432.572,11.238,96.433,-0.2314560
41.69,434.872,11.163,95.788,-0.3210620
41.92,437.173,11.065,94.948,-0.3990380
42.15,439.473,10.947,93.934,-0.4916670
42.38,441.774,10.801,92.683,-0.5961080
42.61,444.074,10.629,91.204,-0.6931830
42.84,446.374,10.42,89.408,-0.7847070
43.07,448.675,10.187,87.41,-1.0066
43.3,450.975,9.881,84.787,-1.18675
43.53,453.276,9.505,81.556,-1.57127
43.76,455.576,9.046,77.621,-1.95903
43.99,457.876,8.515,73.06,-2.12748
44.22,460.177,7.896,67.756,-2.46907
44.45,462.477,7.173,61.552,-2.73952
44.68,464.778,6.383,54.767,-3.25282
44.91,467.078,5.508,47.258,-3.36393
45.14,469.378,4.567,39.189,-3.53898
45.37,471.679,3.599,30.883,-3.59814
45.6,473.979,2.655,22.783,-3.44219
45.83,476.28,1.777,15.246,-3.01524
46.06,478.58,1.057,9.069,-2.31237
46.29,480.881,0.5460000,4.688,-1.48489
46.51,483.181,0.2740000,2.354,-0.6375280
46.74,485.481,0.1660000,1.426,-0.2163650
46.98,487.782,0.1350000,1.159,-0.0584073
47.21,490.082,0.1210000,1.039,-0.0376395
47.44,492.383,0.1150000,0.9850000,-0.0134248
47.67,494.683,0.1120000,0.9650000,-0.0045769
47.9,496.983,0.1120000,0.9590000,-0.0013290
48.13,499.284,0.1110000,0.9560000,-0.0009408
48.36,501.584,0.1110000,0.9550000,-0.0007927
48.59,503.885,0.1110000,0.9540000,0.0002140
48.82,506.185,0.1110000,0.9540000,0.0003359
49.05,508.485,0.1110000,0.9530000,-0.0005059
49.28,510.786,0.1110000,0.9530000,-0.0002098
49.51,513.086,0.1110000,0.9530000,-0.0005108
49.74,515.387,0.1110000,0.9520000,-0.0000825
49.97,517.687,0.1110000,0.9520000,-0.0006520
50.2,519.987,0.1110000,0.9510000,-0.0002210
50.43,522.288,0.1110000,0.9510000,-0.0008881
50.66,524.588,0.1110000,0.9500000,0.0000233
50.89,526.889,0.1110000,0.9490000,-0.0006303
51.12,529.189,0.1110000,0.9480000,-0.0003636
51.35,531.49,0.1100000,0.9480000,-0.0004382
51.58,533.79,0.1100000,0.9470000,-0.0001399
51.81,536.09,0.1100000,0.9460000,-0.0005323
52.04,538.391,0.1100000,0.9450000,-0.0001964
52.27,540.691,0.1100000,0.9440000,-0.0002086
52.5,542.992,0.1100000,0.9430000,0.0005560
52.73,545.292,0.1100000,0.9430000,-0.0004409
52.96,547.592,0.1100000,0.9420000,0.0000783
53.19,549.893,0.1100000,0.9410000,-0.0001686
53.42,552.193,0.1100000,0.9400000,-0.0004420
53.65,554.494,0.1090000,0.9390000,-0.0004542
53.88,556.794,0.1090000,0.9380000,-0.0005111
54.11,559.094,0.1090000,0.9380000,-0.0003123
54.34,561.395,0.1090000,0.9370000,-0.0004824
54.57,563.695,0.1090000,0.9360000,0.0000005
54.8,565.996,0.1090000,0.9350000,-0.0008032
55.03,568.296,0.1090000,0.9340000,-0.0005037
55.26,570.597,0.1090000,0.9330000,-0.0008821
55.49,572.897,0.1090000,0.9320000,-0.0002892
55.72,575.197,0.1080000,0.9300000,-0.0005949
55.95,577.498,0.1080000,0.9290000,-0.0013262
56.18,579.798,0.1080000,0.9260000,-0.0010581
56.41,582.099,0.1080000,0.9240000,-0.0009584
56.64,584.399,0.1070000,0.9220000,-0.0008746
56.87,586.699,0.1070000,0.9200000,-0.0004015
57.1,589,0.1070000,0.9170000,-0.0010755
57.2,590,0.1070000,0.9160000,-0.0010065