Folder: rHDPE_Data_Analysis/R/rHDPE_App/app/www/Output/TGA/Features

File: Features.csv
,TGA_Residue,TGA_Temp_40-60,TGA_Temp_60-80,TGA_Temp_80-100,TGA_Temp_100-120,TGA_Temp_120-140,TGA_Temp_140-160,TGA_Temp_160-180,TGA_Temp_180-200,TGA_Temp_200-220,TGA_Temp_220-240,TGA_Temp_240-260,TGA_Temp_260-280,TGA_Temp_280-300,TGA_Temp_300-320,TGA_Temp_320-340,TGA_Temp_340-360,TGA_Temp_360-380,TGA_Temp_380-400,TGA_Temp_400-420,TGA_Temp_420-440,TGA_Temp_440-460,TGA_Temp_460-480,TGA_Temp_480-500,TGA_Temp_500-520,TGA_Temp_520-540,TGA_Temp_540-560,TGA_Temp_560-580,TGA_Temp_580-600
0,0.089,-0.00116579,-0.000807856,-0.000415926,-8.44849e-05,0.000105981,0.00137625,0.00137275,0.00173269,0.00199464,0.0022456,0.00258304,0.00305295,0.00339689,0.00367384,0.00410377,0.00544003,0.00956329,0.0247086,0.0731184,0.276714,1.27396,3.05007,0.259339,0.000155472,0.000133476,0.000154472,0.000217961,0.000299946
2,1.692,-0.0011068,-0.000758365,-0.000344438,9.79825e-05,0.000439921,0.00182617,0.00213362,0.00264803,0.00301646,0.0033559,0.00370734,0.00413976,0.00453619,0.00486763,0.00543203,0.00676129,0.0116119,0.0303936,0.0988938,0.367741,1.64441,2.64791,0.0734154,0.000123978,0.000190966,0.000240957,0.000760864,0.000549902
4,1.747,-0.00145724,-0.000998322,-0.000512908,-2.44956e-05,0.000421925,0.0016527,0.00175519,0.00218361,0.00260403,0.00301346,0.00340339,0.0039073,0.00431523,0.00462067,0.0050526,0.00604542,0.0089679,0.0195565,0.0491397,0.22835,1.00813,2.96771,0.595558,0.000177468,0.00011198,7.69862e-05,0.000289948,0.000633887
6,1.698,-0.00187816,-0.00149073,-0.000745867,-0.000578897,-0.000316443,0.00155422,0.00131926,0.00154422,0.00160121,0.00165021,0.00163171,0.0016732,0.00215312,0.00259554,0.00307495,0.00387931,0.00610091,0.0144529,0.0402148,0.165298,0.731741,2.76383,1.17759,0.00033644,-6.79879e-05,-6.39886e-05,-2.59954e-05,9.99821e-05
8,3.741,-0.00129127,-0.000849848,-0.000433923,-9.99821e-06,-0.000137975,0.00119429,0.000883842,0.00134126,0.00182467,0.00217761,0.00259504,0.00348988,0.00536504,0.00759614,0.00869945,0.00740018,0.0089514,0.0203479,0.0615675,0.272142,1.32197,2.82459,0.263991,-5.19907e-05,-7.94858e-05,8.59846e-05,0.000562899,0.000831851
10,3.737,-0.00137775,-0.000947331,-0.000471916,-7.54865e-05,-0.000202464,0.00106481,0.000712373,0.0010993,0.00156572,0.00190816,0.00244506,0.00330291,0.00489213,0.00706774,0.00858897,0.00817354,0.0089839,0.0160731,0.0409627,0.226353,1.12789,2.94455,0.411196,0.000131976,2.54954e-05,0.000207463,0.000516408,0.000811855
12,1.198,-0.00136926,-0.000961328,-0.000463417,-4.39921e-05,0.000488413,0.00164021,0.00188216,0.00248356,0.00302646,0.00347388,0.00383681,0.00422275,0.00459568,0.00487913,0.00513458,0.00576247,0.00808806,0.0163781,0.0442826,0.202677,0.994701,3.0343,0.601112,0.000234458,0.000145474,0.00028145,0.000722871,0.000979825
14,0.073,0.000305945,-0.00022296,-8.64846e-05,0.00022396,0.00050291,0.00213562,0.00259504,0.00349538,0.00406177,0.00431723,0.0044712,0.00483564,0.00513208,0.00525356,0.00550652,0.00631187,0.0105016,0.0257244,0.0711288,0.295087,1.42181,2.95164,0.169161,0.000744367,0.000791859,0.000695376,0.000601393,0.000675879
16,1.837,-0.00147724,-0.00103931,-0.000482914,-1.54972e-05,0.000712873,0.00192066,0.00258654,0.0033424,0.00385531,0.00406427,0.00426074,0.0044622,0.00471866,0.00498761,0.00536204,0.0067283,0.0108771,0.0258889,0.0907453,0.347076,1.54117,2.73503,0.10571,0.000107981,0.000284449,0.00173219,0.00440871,0.00532505
18,1.023,-0.00118979,-0.000805356,-0.000252955,0.00011198,0.000483414,0.00153323,0.00156072,0.00199764,0.00258754,0.00339839,0.00432923,0.00527506,0.00624039,0.00702325,0.00773112,0.00901139,0.0115194,0.0218946,0.0780586,0.356508,1.50923,2.77383,0.144379,0.000463417,0.000522407,0.00156622,0.00192766,0.00198964
20,0.955,-0.000824353,-0.000639886,-0.000268452,6.89877e-05,0.000301946,0.00147224,0.00157622,0.00215062,0.00266352,0.00312944,0.00361036,0.00416176,0.00479014,0.00572248,0.00733819,0.0117779,0.0198355,0.0303356,0.0681583,0.24752,1.02019,2.85521,0.661488,0.000442921,0.000713373,0.000853348,0.000530905,0.00104981
22,0.101,-0.000942332,-0.000861846,-0.000475415,-7.44867e-05,4.89912e-05,0.00129527,0.000771862,0.000944331,0.00114879,0.00144724,0.00171969,0.00202464,0.00245156,0.002796,0.00331041,0.00403128,0.00655483,0.0155507,0.0426009,0.199903,1.07676,3.09376,0.539712,-6.19889e-05,-4.99823e-15,0.000185967,0.000325442,0.000215961
24,0.142,-0.00149723,-0.0011138,-0.000685878,-0.000341939,-0.000256954,0.000878843,0.000322942,0.000328441,0.00039093,0.000444921,0.000484913,0.000622889,0.000816854,0.00106881,0.00140125,0.00205813,0.0039028,0.0102542,0.0289228,0.129386,0.891477,3.23436,0.691131,-4.84913e-05,-0.0,4.99911e-05,4.99911e-05,-0.0
26,1.587,-0.00128527,-0.000844849,-0.000430923,-4.54919e-05,0.000232458,0.00152073,0.00138575,0.00173919,0.00205313,0.00228609,0.00268402,0.00321493,0.00385581,0.00521357,0.00802357,0.0136461,0.013739,0.0176159,0.0388831,0.220347,1.11719,2.83442,0.632209,0.000493412,0.000352437,0.00061689,0.00107431,0.00196365
28,0.107,-0.00147374,-0.0011193,-0.000687877,-0.000346438,-0.000293948,0.000971826,0.00050341,0.000695876,0.00084135,0.00100332,0.00129127,0.0016592,0.00210262,0.00258954,0.00296197,0.00348738,0.00594044,0.0151063,0.0397399,0.140318,0.872642,3.08758,0.821761,-7.89859e-05,-0.000137975,-0.000232458,-0.000487413,-0.000749866
30,0.954,-0.00135576,-0.000995322,-0.000564899,-9.89823e-05,0.000215462,0.00190016,0.00244356,0.0033609,0.00409227,0.0044957,0.00477065,0.00525456,0.00564199,0.00585895,0.00640536,0.00698925,0.008407,0.0130622,0.0269132,0.132889,0.825646,2.77279,1.12204,0.00134526,0.000388431,0.000494912,0.000569398,0.000655883
32,1.36,-0.00120079,-0.000855847,-0.000420425,7.14872e-05,0.000406927,0.00183867,0.00190366,0.00236058,0.00269352,0.00295947,0.00316144,0.00340639,0.00380682,0.0044637,0.00565349,0.00819254,0.011289,0.0145879,0.0200449,0.0434997,0.46014,2.696,1.64272,0.00284599,0.000668881,0.000906838,0.00116929,0.00149773
34,1.815,-0.0011303,-0.00083735,-0.000411926,-3.09945e-05,0.00016597,0.0016747,0.00207513,0.00293898,0.00352737,0.00378682,0.0039448,0.00420375,0.00439971,0.00468516,0.00521457,0.00581046,0.0067238,0.0124533,0.0307915,0.16698,0.870772,2.69643,1.08151,0.0022511,0.000342439,0.000552901,0.000696376,0.000995822
36,2.143,-0.00129777,-0.000929834,-0.000492412,6.99875e-06,0.000332941,0.00171019,0.00200664,0.00306245,0.00385931,0.00428723,0.00441671,0.0045042,0.00473565,0.00533655,0.00607492,0.00715022,0.00909138,0.014222,0.0311844,0.161182,0.989829,2.73328,0.903981,0.00264703,0.000655383,0.000771362,0.0011423,0.0022376
38,0.038,-0.00121278,-0.000939832,-0.000639886,-0.000377433,-0.000356436,0.000622889,0.000192966,0.000246456,0.000302446,0.000376933,0.000473915,0.000605392,0.000773362,0.000970327,0.00125228,0.00199514,0.00407977,0.0124708,0.0425109,0.183182,1.09123,3.28004,0.382035,-4.64917e-05,-6.1489e-05,-8.49848e-05,-5.29905e-05,-9.99821e-05
40,0.091,-0.00140475,-0.00105231,-0.00066988,-0.00033844,-0.000172969,0.00084035,0.00033694,0.000294947,0.000321943,0.00039293,0.000499411,0.000644385,0.000807356,0.000985324,0.00120928,0.00175319,0.00326542,0.00910387,0.0276166,0.1159,0.811697,3.03792,0.987471,-4.24924e-05,-0.000118979,-0.00011448,-0.00011348,-0.000123978

File: Mean_Features.csv
,sample,TGA_Residue,TGA_Temp_160-180,TGA_Temp_300-320,TGA_Temp_380-400,TGA_Temp_460-480,TGA_Temp_480-500
0,1.0,0.00937245,0.431606,0.393659,0.481543,0.491016,0.419693
1,2.0,0.448248,0.717537,0.570984,0.58798,0.22169,0.399521
2,3.0,0.457847,0.302551,0.24199,0.286577,0.485974,0.390332
3,4.0,0.997555,0.163451,0.922443,0.379015,0.447818,0.208361
4,5.0,0.296794,0.838066,0.583978,0.404281,0.575438,0.258419
5,6.0,0.0287965,0.595274,0.504404,0.497856,0.657022,0.0501409
6,7.0,0.00353165,0.985259,0.641112,0.767186,0.496752,0.0610116
7,8.0,0.197501,0.345328,0.50157,0.887696,0.565206,0.0269921
8,9.0,0.482749,0.981574,0.600368,0.775343,0.249442,0.020579
9,10.0,0.264874,0.930631,0.810829,1.0,0.411896,0.169043
10,11.0,0.261614,0.536744,0.912231,0.577262,0.293736,0.0452199
11,12.0,0.0728063,0.315196,0.533047,0.259935,0.586958,0.460761
12,13.0,0.24314,0.543464,0.712951,0.99586,0.386651,0.374734
13,14.0,0.216517,0.791242,0.965689,0.376627,0.548254,0.329968
14,15.0,0.0111383,0.194667,0.264609,0.262662,0.65902,0.297135
15,16.0,0.0119533,0.171472,0.300222,0.421152,0.846028,0.104852
16,17.0,0.0169791,0.0583135,0.0226698,0.036443,0.817131,0.244752
17,18.0,0.406275,0.683503,0.646933,0.374235,0.385541,0.260795
18,19.0,0.00638413,0.0868199,0.248794,0.301584,0.743468,0.387402
19,20.0,0.237707,0.877086,0.722295,0.181372,0.418982,0.4163
20,21.0,0.330209,0.751138,0.523895,0.128939,0.602439,0.710236
21,22.0,0.46414,0.73553,0.569886,0.206733,0.306775,0.418032
22,23.0,0.563977,0.792976,0.687218,0.237797,0.307099,0.376302

File: Mean_Features_Unnormalised.csv
,sample,TGA_Residue,TGA_Temp_160-180,TGA_Temp_300-320,TGA_Temp_380-400,TGA_Temp_460-480,TGA_Temp_480-500
0,1.0,0.0945,0.00131826,0.00363835,0.0199644,2.94661,0.732043
1,2.0,1.71,0.00197765,0.00479581,0.0221107,2.71073,0.700386
2,3.0,1.74533,0.00102065,0.00264836,0.016033,2.9422,0.685965
3,4.0,3.732,0.000699875,0.0070899,0.017897,2.90878,0.400397
4,5.0,1.1525,0.0022556,0.00488063,0.0184065,3.02055,0.478953
5,6.0,0.166,0.0016957,0.00436122,0.0202934,3.09201,0.152102
6,7.0,0.073,0.00259504,0.00525356,0.0257244,2.95164,0.169161
7,8.0,0.787,0.0011193,0.00434272,0.0281545,3.01159,0.115774
8,9.0,1.837,0.00258654,0.00498761,0.0258889,2.73503,0.10571
9,10.0,1.035,0.00246906,0.00636136,0.0304191,2.87732,0.338695
10,11.0,1.023,0.00156072,0.00702325,0.0218946,2.77383,0.144379
11,12.0,0.328,0.00104981,0.00454819,0.0154957,3.03064,0.79649
12,13.0,0.955,0.00157622,0.00572248,0.0303356,2.85521,0.661488
13,14.0,0.857,0.00214762,0.00737218,0.0178488,2.99674,0.591236
14,15.0,0.101,0.000771862,0.002796,0.0155507,3.09376,0.539712
15,16.0,0.104,0.000718372,0.00302846,0.0187467,3.25754,0.237959
16,17.0,0.1225,0.000457418,0.00121678,0.010989,3.23223,0.457506
17,18.0,1.5555,0.00189916,0.00529155,0.0178006,2.85423,0.482682
18,19.0,0.0835,0.000523157,0.00269277,0.0163356,3.16772,0.681368
19,20.0,0.935,0.00234558,0.00578347,0.0139115,2.88352,0.726717
20,21.0,1.2755,0.00205513,0.00448845,0.0128542,3.0442,1.18799
21,22.0,1.7685,0.00201914,0.00478864,0.0144229,2.78525,0.729435
22,23.0,2.136,0.00215162,0.00555451,0.0150493,2.78553,0.663949
23,24.0,0.0733333,0.000270785,0.00104781,0.00991256,3.13448,0.775869

File: Std_of_Features.csv
,sample,TGA_Residue,TGA_Temp_160-180,TGA_Temp_300-320,TGA_Temp_380-400,TGA_Temp_460-480,TGA_Temp_480-500
0,1.0,0.00149416,0.0236289,0.0054377,0.235268,0.118122,0.301218
1,2.0,0.00502642,0.0495169,0.0134876,0.210346,0.152961,0.252168
2,3.0,0.0102627,0.064762,0.00416688,0.067882,0.104557,0.170798
3,4.0,0.00192736,0.0476994,0.0438305,0.0631402,0.0482446,0.0483205
4,5.0,0.0123608,0.161934,0.000229762,0.10059,0.0156926,0.0778422
5,6.0,0.0,0.0,0.0,0.0,0.0,0.0
6,7.0,0.0,0.0,0.0,0.0,0.0,0.0
7,8.0,0.0,0.0,0.0,0.0,0.0,0.0
8,9.0,0.0,0.0,0.0,0.0,0.0,0.0
9,10.0,0.0,0.0,0.0,0.0,0.0,0.0
10,11.0,0.0,0.0,0.0,0.0,0.0,0.0
11,12.0,0.0,0.0,0.0,0.0,0.0,0.0
12,13.0,0.0,0.0,0.0,0.0,0.0,0.0
13,14.0,0.0,0.0,0.0,0.0,0.0,0.0
14,15.0,0.0,0.0,0.0,0.0,0.0,0.0
15,16.0,0.0,0.0,0.0,0.0,0.0,0.0
16,17.0,0.00529747,0.0583135,0.0226698,0.036443,0.00243097,0.148871
17,18.0,0.00855746,0.222632,0.0119476,0.00916032,0.022619,0.0952823
18,19.0,0.00638413,0.00856276,0.0158153,0.0609614,0.0914946,0.0894618
19,20.0,0.00516164,0.0424886,0.0115647,0.0421201,0.126429,0.251911
20,21.0,0.0229557,0.0656839,0.00379107,0.0859757,0.397561,0.289764
21,22.0,0.0126324,0.0242792,0.0158536,0.0976771,0.101414,0.224352
22,23.0,0.00190166,0.0628658,0.0333921,0.0410293,0.0596555,0.152955

File: Std_of_Features_Unnormalised.csv
,sample,TGA_Residue,TGA_Temp_160-180,TGA_Temp_300-320,TGA_Temp_380-400,TGA_Temp_460-480,TGA_Temp_480-500
0,1.0,0.0055,5.44903e-05,3.54937e-05,0.00474415,0.103455,0.472704
1,2.0,0.0185023,0.00011419,8.80384e-05,0.0042416,0.133968,0.395729
2,3.0,0.0377771,0.000149347,2.71986e-05,0.00136883,0.0915746,0.268034
3,4.0,0.0070946,0.000109999,0.000286096,0.00127322,0.0422542,0.0758296
4,5.0,0.0455,0.000373433,1.49973e-06,0.00202839,0.013744,0.122158
5,6.0,0.0,0.0,0.0,0.0,0.0,0.0
6,7.0,0.0,0.0,0.0,0.0,0.0,0.0
7,8.0,0.0,0.0,0.0,0.0,0.0,0.0
8,9.0,0.0,0.0,0.0,0.0,0.0,0.0
9,10.0,0.0,0.0,0.0,0.0,0.0,0.0
10,11.0,0.0,0.0,0.0,0.0,0.0,0.0
11,12.0,0.0,0.0,0.0,0.0,0.0,0.0
12,13.0,0.0,0.0,0.0,0.0,0.0,0.0
13,14.0,0.0,0.0,0.0,0.0,0.0,0.0
14,15.0,0.0,0.0,0.0,0.0,0.0,0.0
15,16.0,0.0,0.0,0.0,0.0,0.0,0.0
16,17.0,0.0195,0.000134476,0.000147974,0.000734869,0.00212912,0.233625
17,18.0,0.0315,0.000513408,7.79861e-05,0.000184717,0.0198105,0.149527
18,19.0,0.0235,1.97465e-05,0.000103232,0.00122928,0.0801339,0.140393
19,20.0,0.019,9.79825e-05,7.54865e-05,0.000849348,0.11073,0.395326
20,21.0,0.0845,0.000151473,2.47456e-05,0.00173369,0.348197,0.454729
21,22.0,0.0465,5.599e-05,0.000103482,0.00196965,0.0888214,0.352077
22,23.0,0.007,0.000144974,0.000217961,0.000827352,0.0522482,0.240032
23,24.0,0.0176667,4.1969e-05,7.01213e-05,0.00130762,0.0740631,0.197099