Folder: rHDPE_Data_Analysis/R/rHDPE_App/app/www/Output/TGA/Mean_Data

File: Means.csv
100.025,100.025,100.029,100.029,100.026,100.043,100.015,100.008,100.02,100.01,100.013,100.031,100.012,100.017,100.009,100.022,100.04,100.016,100.02,100.024,100.028,100.023,100.028,100.041
100.044,100.045,100.054,100.049,100.036,100.053,100.032,100.03,100.046,100.026,100.038,100.049,100.03,100.044,100.019,100.055,100.058,100.052,100.051,100.047,100.051,100.043,100.05,100.057
100.056,100.058,100.071,100.064,100.046,100.064,100.036,100.038,100.062,100.035,100.05,100.059,100.04,100.059,100.028,100.071,100.075,100.069,100.068,100.064,100.067,100.057,100.065,100.071
100.067,100.07,100.087,100.077,100.055,100.075,100.024,100.046,100.076,100.044,100.062,100.071,100.047,100.072,100.039,100.086,100.089,100.085,100.084,100.08,100.081,100.069,100.078,100.085
100.077,100.08,100.1,100.088,100.062,100.083,100.028,100.051,100.088,100.05,100.071,100.08,100.054,100.083,100.049,100.098,100.102,100.097,100.097,100.093,100.093,100.079,100.09,100.096
100.086,100.088,100.11,100.097,100.068,100.09,100.031,100.055,100.097,100.055,100.078,100.087,100.06,100.091,100.056,100.108,100.112,100.109,100.108,100.103,100.101,100.087,100.097,100.106
100.091,100.093,100.118,100.103,100.072,100.094,100.032,100.057,100.103,100.057,100.082,100.093,100.063,100.097,100.062,100.116,100.12,100.115,100.116,100.11,100.107,100.091,100.103,100.113
100.095,100.095,100.123,100.106,100.073,100.096,100.032,100.056,100.106,100.058,100.082,100.096,100.065,100.1,100.065,100.121,100.124,100.12,100.121,100.114,100.11,100.094,100.106,100.119
100.096,100.095,100.127,100.107,100.073,100.097,100.03,100.054,100.106,100.056,100.082,100.098,100.064,100.1,100.066,100.124,100.127,100.121,100.123,100.115,100.111,100.094,100.106,100.122
100.097,100.094,100.13,100.107,100.07,100.096,100.027,100.051,100.106,100.053,100.079,100.099,100.062,100.101,100.066,100.126,100.128,100.121,100.123,100.115,100.109,100.093,100.105,100.125
100.098,100.093,100.133,100.11,100.07,100.096,100.026,100.046,100.106,100.048,100.077,100.102,100.061,100.101,100.068,100.13,100.13,100.12,100.126,100.115,100.109,100.092,100.103,100.129
100.092,100.082,100.128,100.112,100.055,100.087,100.01,100.03,100.084,100.031,100.063,100.101,100.053,100.094,100.059,100.118,100.124,100.103,100.123,100.103,100.091,100.081,100.091,100.127
100.076,100.063,100.112,100.094,100.035,100.07,99.989,100.012,100.066,100.01,100.048,100.086,100.036,100.073,100.044,100.107,100.11,100.085,100.108,100.085,100.072,100.062,100.072,100.115
100.064,100.046,100.103,100.087,100.017,100.057,99.966,100.001,100.045,99.989,100.034,100.078,100.022,100.055,100.036,100.1,100.104,100.069,100.103,100.066,100.054,100.046,100.055,100.113
100.051,100.026,100.092,100.08,99.994,100.04,99.94,99.99,100.018,99.965,100.018,100.068,100.008,100.033,100.028,100.092,100.099,100.049,100.098,100.043,100.033,100.025,100.033,100.11
100.035,100.002,100.081,100.071,99.9675,100.019,99.909,99.977,99.988,99.935,100,100.054,99.988,100.007,100.02,100.085,100.095,100.028,100.091,100.013,100.01,100.001,100.006,100.107
100.018,99.977,100.068,100.06,99.9365,99.994,99.873,99.96,99.953,99.904,99.98,100.039,99.966,99.978,100.011,100.076,100.091,100.004,100.084,99.9805,99.984,99.972,99.9735,100.104
99.9985,99.949,100.054,100.046,99.903,99.967,99.833,99.941,99.916,99.871,99.956,100.021,99.94,99.945,99.999,100.067,100.089,99.9775,100.076,99.943,99.956,99.941,99.9355,100.1
99.9785,99.919,100.039,100.031,99.8675,99.936,99.791,99.92,99.876,99.834,99.93,100.001,99.913,99.91,99.988,100.057,100.085,99.9505,100.067,99.902,99.927,99.908,99.895,100.096
99.9565,99.887,100.024,100.013,99.8295,99.904,99.748,99.896,99.834,99.797,99.899,99.978,99.883,99.874,99.974,100.045,100.079,99.9225,100.057,99.8585,99.8965,99.872,99.852,100.092
99.934,99.853,100.008,99.9933,99.7905,99.87,99.703,99.872,99.793,99.758,99.864,99.953,99.85,99.835,99.959,100.033,100.073,99.893,100.047,99.8135,99.865,99.836,99.8075,100.088
99.9095,99.8177,99.992,99.9707,99.75,99.834,99.658,99.845,99.75,99.717,99.823,99.926,99.816,99.792,99.943,100.019,100.068,99.8625,100.034,99.7665,99.833,99.799,99.762,100.086
99.883,99.78,99.9747,99.9463,99.7085,99.798,99.612,99.817,99.706,99.674,99.778,99.896,99.778,99.745,99.925,100.003,100.061,99.83,100.02,99.7175,99.7995,99.76,99.716,100.08
99.854,99.7407,99.9573,99.9173,99.665,99.76,99.563,99.788,99.66,99.631,99.728,99.864,99.738,99.688,99.905,99.985,100.055,99.7945,100.004,99.666,99.766,99.719,99.669,100.074
99.8225,99.698,99.938,99.883,99.6205,99.721,99.513,99.756,99.614,99.584,99.672,99.83,99.694,99.625,99.884,99.965,100.046,99.7575,99.9865,99.611,99.73,99.676,99.622,100.066
99.789,99.6537,99.9167,99.84,99.5735,99.681,99.461,99.722,99.567,99.533,99.612,99.792,99.647,99.558,99.861,99.941,100.037,99.719,99.966,99.554,99.692,99.6315,99.573,100.057
99.7535,99.6077,99.8923,99.7867,99.5255,99.639,99.408,99.684,99.518,99.478,99.546,99.751,99.597,99.488,99.835,99.914,100.028,99.675,99.9425,99.496,99.651,99.586,99.521,100.048
99.7175,99.5593,99.867,99.7217,99.4765,99.595,99.354,99.642,99.467,99.418,99.476,99.707,99.542,99.415,99.807,99.885,100.016,99.6275,99.916,99.437,99.608,99.5385,99.4665,100.038
99.6795,99.5093,99.839,99.6447,99.4255,99.55,99.3,99.596,99.416,99.35,99.403,99.659,99.482,99.338,99.778,99.852,100.004,99.57,99.888,99.377,99.5605,99.488,99.408,100.027
99.6395,99.4577,99.808,99.558,99.374,99.503,99.244,99.543,99.362,99.27,99.326,99.607,99.413,99.255,99.745,99.818,99.9885,99.497,99.8585,99.315,99.5075,99.4355,99.3465,100.015
99.597,99.402,99.7743,99.467,99.32,99.453,99.187,99.482,99.306,99.171,99.245,99.551,99.333,99.167,99.71,99.781,99.9725,99.4135,99.8265,99.2495,99.4455,99.3795,99.2795,100.001
99.5495,99.3423,99.736,99.3797,99.264,99.396,99.127,99.409,99.243,99.057,99.157,99.491,99.236,99.073,99.672,99.741,99.952,99.31,99.791,99.1795,99.37,99.319,99.2075,99.984
99.494,99.2757,99.6917,99.2997,99.203,99.331,99.059,99.324,99.169,98.92,99.06,99.425,99.097,98.971,99.628,99.695,99.928,99.19,99.75,99.1065,99.2785,99.253,99.128,99.963
99.4275,99.1953,99.636,99.2173,99.1295,99.251,98.97,99.222,99.076,98.758,98.952,99.348,98.911,98.863,99.573,99.637,99.894,99.077,99.695,99.0255,99.1725,99.181,99.0395,99.9347
99.332,99.084,99.5583,99.1157,99.0305,99.142,98.844,99.087,98.947,98.558,98.824,99.252,98.689,98.741,99.495,99.549,99.8435,98.957,99.6155,98.929,99.057,99.0935,98.9355,99.8913
99.1735,98.9047,99.4333,98.9677,98.882,98.978,98.641,98.875,98.748,98.289,98.646,99.12,98.409,98.588,99.37,99.403,99.759,98.8045,99.486,98.8095,98.93,98.973,98.805,99.8187
98.913,98.62,99.2217,98.7413,98.645,98.716,98.304,98.498,98.404,97.924,98.366,98.928,98.058,98.368,99.168,99.154,99.6125,98.586,99.273,98.639,98.7905,98.792,98.622,99.683
98.482,98.162,98.863,98.375,98.2555,98.283,97.783,97.639,97.773,97.405,97.866,98.629,97.567,98.051,98.835,98.768,99.359,98.253,98.9135,98.3845,98.6325,98.513,98.345,99.434
97.681,97.249,98.174,97.692,97.469,97.42,96.745,96.109,96.396,96.367,96.619,98.122,96.575,97.479,98.249,98.156,98.889,97.686,98.3275,97.966,98.435,98.001,97.892,98.9957
96.065,95.3947,96.6433,96.0197,95.8005,95.613,94.613,93.94,93.804,94.17,93.998,96.87,94.67,96.102,96.77,96.931,97.8315,96.188,97.2355,96.9335,98.133,96.6075,96.6915,98.0753
92.901,91.395,93.2697,92.3,92.234,91.41,89.87,89.785,88.45,89.919,88.418,94.086,90.933,92.783,93.649,93.751,95.055,92.1225,94.659,93.6915,97.5245,92.906,93.2545,95.8307
85.5285,82.7767,85.9943,83.5023,84.1455,80.906,78.793,79.732,76.335,80.28,76.421,87.709,83.024,84.893,85.731,85.262,86.7555,82.365,87.915,85.7625,94.5305,84.7125,84.5445,89.261
68.642,64.589,69.3103,64.199,65.4795,58.395,55.764,56.134,51.551,59.336,52.399,72.214,66.453,67.422,67.471,62.951,68.402,62.6315,72.1695,67.8675,82.042,66.8385,65.721,73.5163
36.813,34.584,37.9463,30.298,32.2415,18.92,18.942,16.24,15.731,25.512,17.442,41.425,36.161,35.307,34.713,23.23,32.414,30.5815,38.5265,36.9565,51.5515,36.6895,35.0045,41.754
6.725,8.783,7.14833,6.14067,3.6145,0.3170000,0.3700000,0.9460000,2.18,3.026,1.359,6.048,5.915,4.426,2.56,0.4880000,1.9995,4.918,4.353,7.5,14.094,8.8,8.4465,5.41967
0.1475000,1.80967,1.79667,3.773,1.2025,0.1660000,0.1420000,0.8040000,2.02,1.21,1.137,0.3560000,1.049,0.9130000,0.1200000,0.0950000,0.1220000,1.6765,0.0800000,1.0625,1.622,1.9775,2.422,0.0813333
0.1020000,1.73267,1.75833,3.73767,1.189,0.1660000,0.1340000,0.8030000,2.018,1.187,1.128,0.3350000,1.011,0.8940000,0.1110000,0.0940000,0.1165000,1.635,0.0645000,0.9755000,1.3405,1.8285,2.249,0.0653333
0.1010000,1.73067,1.75833,3.73867,1.188,0.1660000,0.1270000,0.8030000,2.017,1.18,1.123,0.3360000,1.009,0.8930000,0.1130000,0.0960000,0.1165000,1.6325,0.0665000,0.9730000,1.3345,1.822,2.243,0.0663333
0.1005000,1.72967,1.759,3.74,1.186,0.1720000,0.1180000,0.8030000,2.016,1.172,1.12,0.3350000,1.006,0.8920000,0.1130000,0.0970000,0.1180000,1.629,0.0680000,0.9695000,1.3315,1.8175,2.2385,0.0676667
0.1005000,1.72833,1.759,3.741,1.185,0.1700000,0.1090000,0.8040000,2.013,1.157,1.115,0.3340000,0.9980000,0.8910000,0.1130000,0.0990000,0.1185000,1.6255,0.0690000,0.9655000,1.326,1.8135,2.2305,0.0680000
0.1005000,1.72667,1.758,3.741,1.183,0.1690000,0.1020000,0.8030000,2.006,1.142,1.104,0.3330000,0.9890000,0.8890000,0.1130000,0.0990000,0.1190000,1.62,0.0695000,0.9620000,1.319,1.807,2.2205,0.0686667
0.0990000,1.72533,1.757,3.741,1.1805,0.1690000,0.0950000,0.8020000,1.989,1.127,1.086,0.3320000,0.9780000,0.8870000,0.1110000,0.1010000,0.1190000,1.6135,0.0715000,0.9575000,1.312,1.8005,2.2115,0.0693333
0.0980000,1.722,1.75433,3.74033,1.176,0.1680000,0.0890000,0.8000000,1.957,1.11,1.07,0.3310000,0.9750000,0.8820000,0.1070000,0.1010000,0.1195000,1.6055,0.0745000,0.9525000,1.305,1.794,2.2005,0.0700000
0.0965000,1.717,1.75067,3.738,1.1685,0.1680000,0.0830000,0.7970000,1.91,1.084,1.049,0.3300000,0.9700000,0.8730000,0.1040000,0.1010000,0.1200000,1.5925,0.0770000,0.9470000,1.2955,1.7865,2.184,0.0713333
0.0950000,1.71233,1.74667,3.734,1.157,0.1670000,0.0760000,0.7910000,1.854,1.047,1.028,0.3280000,0.9590000,0.8610000,0.1010000,0.1030000,0.1220000,1.567,0.0810000,0.9390000,1.2825,1.7745,2.1525,0.0726667
0.0945000,1.71,1.74533,3.732,1.1525,0.1660000,0.0730000,0.7870000,1.837,1.035,1.023,0.3280000,0.9550000,0.8570000,0.1010000,0.1040000,0.1225000,1.5555,0.0835000,0.9350000,1.2755,1.7685,2.136,0.0733333